DeviceTag: Xsens DOT,FirmwareVersion: 2.2.1,AppVersion: 2023.6.0,SyncStatus: Unknown (Synced/Un-synced),OutputRate: 60,FilterProfile: Unknown,Measurement Mode: Sensor fusion Mode - Extended (Euler),StartTime: 2024-04-06 12:30:27.399,© Movella Technologies B.V. 2005-2024
SampleTimeFine,Quat_W,Quat_X,Quat_Y,Quat_Z,FreeAcc_X,FreeAcc_Y,FreeAcc_Z,Status
5554751,0.6655,-0.1514,0.1894,-0.7059,-2.2425,-0.5295,-6.2279,0
5554918,0.6582,-0.1882,0.1890,-0.7040,-0.8341,-1.8528,-6.2076,0
5555085,0.6509,-0.2435,0.1809,-0.6959,-0.0297,-1.5300,-4.8692,0
5555251,0.6435,-0.2879,0.1688,-0.6888,-3.6935,-2.6663,-9.1609,0
5555418,0.6335,-0.3201,0.1649,-0.6848,-2.9729,-2.9488,-8.6537,0
5555585,0.6220,-0.3468,0.1640,-0.6825,-3.0385,-3.0407,-8.2192,0
5555751,0.6103,-0.3678,0.1636,-0.6822,-2.8865,-3.1578,-8.1644,0
5555918,0.5991,-0.3810,0.1668,-0.6842,-2.3244,-3.2689,-7.5454,0
5556085,0.5895,-0.3820,0.1735,-0.6903,-3.7578,-1.1211,-9.0397,0
5556251,0.5832,-0.3738,0.1875,-0.6964,-1.1162,-1.1159,-6.3161,0
5556418,0.5768,-0.3612,0.2005,-0.7047,-2.1813,-2.4248,-7.8434,0
5556585,0.5709,-0.3433,0.2117,-0.7151,-0.9036,-1.7768,-7.0126,0
5556751,0.5661,-0.3212,0.2228,-0.7257,0.0384,-1.1990,-6.4703,0
5556918,0.5623,-0.3004,0.2258,-0.7367,0.7879,-1.4815,-5.5101,0
5557085,0.5595,-0.2835,0.2210,-0.7468,1.9838,-2.5943,-4.8004,0
5557251,0.5591,-0.2672,0.2125,-0.7555,3.1039,-2.8340,-3.9370,0
5557418,0.5617,-0.2514,0.1990,-0.7627,4.0419,-2.6818,-2.3310,0
5557585,0.5661,-0.2369,0.1816,-0.7684,4.4159,-3.0296,-1.4816,0
5557751,0.5716,-0.2216,0.1634,-0.7730,4.8376,-3.3497,0.2404,0
5557918,0.5778,-0.2069,0.1460,-0.7759,5.0646,-3.5035,1.9387,0
5558085,0.5842,-0.1943,0.1291,-0.7773,5.1142,-3.4102,2.8770,0
5558251,0.5903,-0.1845,0.1131,-0.7776,4.9888,-3.0334,3.4215,0
5558418,0.5963,-0.1746,0.0997,-0.7772,4.5974,-2.3996,3.2529,0
5558585,0.6015,-0.1649,0.0883,-0.7767,3.9978,-1.5824,3.3380,0
5558751,0.6055,-0.1550,0.0799,-0.7765,3.4617,-1.0905,3.2778,0
5558918,0.6081,-0.1454,0.0747,-0.7768,3.1069,-0.8243,3.4231,0
5559085,0.6096,-0.1375,0.0719,-0.7774,2.7920,-0.6889,3.7080,0
5559251,0.6106,-0.1307,0.0713,-0.7778,2.5932,-0.6582,3.6202,0
5559418,0.6117,-0.1259,0.0717,-0.7777,2.4052,-0.6036,3.1296,0
5559585,0.6122,-0.1214,0.0715,-0.7781,2.2263,-0.5102,2.8816,0
5559751,0.6118,-0.1155,0.0691,-0.7795,2.2918,0.1420,4.4447,0
5559918,0.6114,-0.1133,0.0659,-0.7804,0.9596,-0.5279,7.5627,0
5560085,0.6088,-0.1150,0.0664,-0.7821,1.1208,-1.5766,5.3591,0
5560251,0.6071,-0.1166,0.0700,-0.7829,1.9445,-2.1621,1.7909,0
5560418,0.6079,-0.1179,0.0713,-0.7820,1.9959,-3.3592,2.2081,0
5560585,0.6082,-0.1224,0.0699,-0.7812,2.1087,-2.3714,5.0725,0
5560752,0.6098,-0.1287,0.0695,-0.7789,2.6523,-1.6713,7.2297,0
5560918,0.6119,-0.1391,0.0708,-0.7754,2.8611,-2.1190,8.3141,0
5561085,0.6129,-0.1526,0.0744,-0.7717,3.3674,-1.9527,7.1535,0
5561252,0.6134,-0.1689,0.0810,-0.7672,3.6659,-0.8905,6.1676,0
5561418,0.6093,-0.1914,0.0888,-0.7643,3.2736,-0.0181,5.3843,0
5561585,0.6074,-0.2136,0.0945,-0.7593,4.1058,0.5647,3.2774,0
5561752,0.6055,-0.2387,0.0998,-0.7526,3.3705,2.6163,3.0852,0
5561918,0.6010,-0.2660,0.1027,-0.7467,3.0330,2.7064,0.6389,0
5562085,0.5945,-0.2947,0.1021,-0.7411,2.0868,3.0834,-1.4241,0
5562252,0.5874,-0.3229,0.0995,-0.7354,1.1573,3.1054,-3.1862,0
5562418,0.5796,-0.3482,0.0961,-0.7305,-0.1476,2.8300,-4.7103,0
5562585,0.5706,-0.3696,0.0932,-0.7274,-1.0822,2.0561,-6.1688,0
5562752,0.5600,-0.3869,0.0939,-0.7265,-2.0205,1.9325,-7.0088,0
5562918,0.5493,-0.3980,0.0967,-0.7284,-2.5935,0.7374,-7.7267,0
5563085,0.5384,-0.4040,0.1009,-0.7326,-3.0990,-1.3310,-8.1086,0
5563252,0.5286,-0.4056,0.1033,-0.7386,-3.6222,-3.1769,-8.4644,0
5563418,0.5209,-0.4033,0.1035,-0.7452,-3.5950,-3.6705,-8.3363,0
5563585,0.5150,-0.3991,0.1012,-0.7518,-3.2773,-3.2584,-7.8817,0
5563752,0.5096,-0.3936,0.0964,-0.7590,-3.0546,-2.6487,-7.8533,0
5563918,0.5048,-0.3862,0.0902,-0.7667,-2.5936,-1.9176,-7.7538,0
5564085,0.5008,-0.3769,0.0829,-0.7748,-2.0676,-1.3490,-7.3542,0
5564252,0.4974,-0.3643,0.0759,-0.7837,-1.4778,-1.4412,-6.4360,0
5564418,0.4953,-0.3468,0.0723,-0.7932,-0.6921,-1.8851,-5.5885,0
5564585,0.4960,-0.3257,0.0709,-0.8018,0.0332,-2.5717,-4.4761,0
5564752,0.4977,-0.3064,0.0664,-0.8087,0.3683,-3.9334,-3.6471,0
5564918,0.5009,-0.2883,0.0596,-0.8139,0.6799,-4.8160,-3.5011,0
5565085,0.5059,-0.2704,0.0507,-0.8175,1.0292,-4.1040,-3.0363,0
5565252,0.5109,-0.2531,0.0406,-0.8205,1.6485,-2.0649,-2.2363,0
5565418,0.5148,-0.2361,0.0308,-0.8236,2.2820,-0.0923,-0.9574,0
5565585,0.5185,-0.2174,0.0241,-0.8266,2.2827,0.5659,0.2864,0
5565752,0.5220,-0.1952,0.0232,-0.8300,2.0966,0.3447,0.9298,0
5565918,0.5253,-0.1709,0.0263,-0.8332,2.0394,-0.0502,0.9540,0
5566085,0.5285,-0.1481,0.0299,-0.8354,2.1357,-0.6545,1.7481,0
5566252,0.5314,-0.1278,0.0318,-0.8368,2.2596,-1.5998,2.4451,0
5566418,0.5343,-0.1118,0.0306,-0.8373,2.5858,-1.2826,3.3253,0
5566585,0.5370,-0.1023,0.0265,-0.8369,2.4375,-0.8181,5.0926,0
5566752,0.5397,-0.0957,0.0213,-0.8361,2.0710,-0.4503,5.5412,0
5566918,0.5426,-0.0897,0.0181,-0.8350,1.9239,-0.0089,4.9655,0
5567085,0.5458,-0.0839,0.0167,-0.8335,1.6580,0.3362,4.6536,0
5567252,0.5485,-0.0786,0.0160,-0.8323,1.3241,0.5719,4.5306,0
5567418,0.5503,-0.0747,0.0161,-0.8315,1.0182,0.2256,4.2716,0
5567585,0.5515,-0.0719,0.0173,-0.8309,0.8033,-0.1264,3.9421,0
5567752,0.5526,-0.0702,0.0188,-0.8303,0.6344,-0.6620,3.4429,0
5567918,0.5538,-0.0691,0.0208,-0.8295,0.5661,-0.7883,2.9704,0
5568085,0.5554,-0.0685,0.0228,-0.8285,0.3249,-0.8244,2.6045,0
5568252,0.5569,-0.0686,0.0240,-0.8274,0.3823,-0.9224,1.8715,0
5568418,0.5588,-0.0701,0.0233,-0.8260,0.2865,-0.8350,1.5970,0
5568585,0.5604,-0.0727,0.0208,-0.8248,0.2461,-0.8331,2.1217,0
5568752,0.5615,-0.0762,0.0176,-0.8237,0.2993,-0.6529,2.7769,0
5568918,0.5625,-0.0809,0.0143,-0.8227,0.4293,-0.4291,3.0925,0
5569085,0.5637,-0.0859,0.0121,-0.8214,0.3277,-0.0038,3.1772,0
5569252,0.5651,-0.0908,0.0121,-0.8199,0.4387,0.2810,2.9653,0
5569418,0.5665,-0.0955,0.0135,-0.8184,0.4543,0.3541,2.8961,0
5569585,0.5680,-0.1008,0.0154,-0.8167,0.7122,0.0482,3.0040,0
5569752,0.5692,-0.1083,0.0162,-0.8149,0.8819,-0.3041,3.1610,0
5569918,0.5700,-0.1197,0.0153,-0.8128,0.9404,-0.4303,3.3539,0
5570085,0.5710,-0.1332,0.0149,-0.8099,1.1254,0.0699,3.3016,0
5570252,0.5717,-0.1495,0.0148,-0.8066,1.1969,0.9562,3.3173,0
5570418,0.5719,-0.1675,0.0159,-0.8029,1.2712,1.4477,3.0909,0
5570585,0.5718,-0.1848,0.0192,-0.7991,1.1599,1.8132,2.3303,0
5570752,0.5716,-0.2014,0.0256,-0.7950,1.1046,2.1275,1.6675,0
5570918,0.5710,-0.2181,0.0347,-0.7907,0.9306,2.1766,1.3625,0
5571085,0.5681,-0.2375,0.0450,-0.7867,1.0091,2.1887,1.1941,0
5571252,0.5621,-0.2616,0.0569,-0.7826,1.2449,2.0920,0.7586,0
5571418,0.5549,-0.2849,0.0718,-0.7783,0.7494,1.7951,-2.3900,0
5571585,0.5482,-0.3085,0.0850,-0.7727,-0.7430,2.0440,-5.8262,0
5571752,0.5412,-0.3329,0.0926,-0.7666,-2.8195,1.6123,-8.1272,0
5571918,0.5325,-0.3520,0.0951,-0.7639,-5.0420,1.2401,-10.0305,0
5572085,0.5233,-0.3626,0.0932,-0.7655,-6.0328,1.4679,-10.9676,0
5572252,0.5160,-0.3650,0.0892,-0.7698,-5.7510,0.8598,-10.5967,0
5572418,0.5096,-0.3604,0.0826,-0.7769,-5.2413,-0.6820,-10.2144,0
5572585,0.5029,-0.3498,0.0729,-0.7870,-4.6324,-2.4316,-10.2939,0
5572752,0.4969,-0.3333,0.0619,-0.7989,-3.6405,-3.6185,-10.3864,0
5572918,0.4927,-0.3125,0.0510,-0.8105,-2.4067,-4.4603,-10.0559,0
5573085,0.4896,-0.2887,0.0407,-0.8218,-1.2330,-4.9313,-8.7015,0
5573252,0.4863,-0.2610,0.0311,-0.8333,-0.2026,-5.2865,-7.2231,0
5573418,0.4839,-0.2302,0.0241,-0.8440,0.8844,-4.7145,-5.9650,0
5573585,0.4841,-0.1979,0.0216,-0.8521,1.9297,-4.0984,-4.1396,0
5573752,0.4873,-0.1669,0.0208,-0.8569,2.5189,-4.0654,-1.7077,0
5573918,0.4940,-0.1422,0.0169,-0.8576,3.0025,-4.3725,0.7198,0
5574085,0.5026,-0.1236,0.0106,-0.8556,3.3103,-3.3771,2.2109,0
5574252,0.5121,-0.1065,0.0045,-0.8523,3.3355,-2.1339,3.5290,0
5574418,0.5220,-0.0877,0.0004,-0.8484,3.5109,-1.2130,4.5921,0
5574585,0.5310,-0.0677,-0.0014,-0.8447,3.4405,-0.4556,6.6343,0
5574752,0.5390,-0.0491,-0.0021,-0.8409,3.3395,-0.1398,8.7162,0
5574918,0.5462,-0.0355,-0.0055,-0.8369,3.2163,-0.5563,10.3469,0
5575085,0.5527,-0.0314,-0.0141,-0.8326,2.7955,-1.0331,12.4701,0
5575252,0.5597,-0.0361,-0.0251,-0.8275,1.8892,-0.4895,14.2214,0
5575418,0.5665,-0.0473,-0.0344,-0.8220,1.3004,0.7500,14.2299,0
5575585,0.5738,-0.0607,-0.0372,-0.8159,1.2271,2.3348,12.3981,0
5575752,0.5811,-0.0734,-0.0322,-0.8098,1.2529,3.0333,10.1088,0
5575918,0.5879,-0.0862,-0.0212,-0.8040,1.3210,3.1408,8.4973,0
5576085,0.5883,-0.1009,-0.0055,-0.8023,1.5204,2.6475,7.2941,0
5576252,0.5927,-0.1173,0.0118,-0.7967,1.7710,2.3615,5.6682,0
5576418,0.5949,-0.1365,0.0283,-0.7916,1.7743,2.3835,3.3809,0
5576585,0.5945,-0.1596,0.0409,-0.7871,1.6160,2.8094,1.1226,0
5576752,0.5918,-0.1858,0.0482,-0.7829,1.0015,3.3816,-0.7074,0
5576918,0.5875,-0.2126,0.0516,-0.7791,0.3571,3.5943,-2.5247,0
5577085,0.5821,-0.2392,0.0520,-0.7754,-0.3936,3.6402,-3.8978,0
5577252,0.5762,-0.2648,0.0515,-0.7715,-1.1539,3.4123,-4.4572,0
5577419,0.5695,-0.2875,0.0515,-0.7683,-2.0458,2.9066,-5.4641,0
5577585,0.5620,-0.3065,0.0529,-0.7665,-2.7668,2.4329,-6.5045,0
5577752,0.5527,-0.3219,0.0544,-0.7668,-3.5395,1.6164,-7.6502,0
5577919,0.5432,-0.3330,0.0547,-0.7688,-3.9965,0.5784,-8.3652,0
5578085,0.5343,-0.3399,0.0534,-0.7721,-4.4303,-1.0100,-8.7452,0
5578252,0.5271,-0.3423,0.0516,-0.7761,-4.5560,-2.1890,-8.6905,0
5578419,0.5211,-0.3427,0.0482,-0.7802,-4.4430,-2.5209,-8.2762,0
5578585,0.5156,-0.3405,0.0434,-0.7851,-4.0936,-2.2464,-8.1269,0
5578752,0.5104,-0.3355,0.0366,-0.7909,-3.5604,-1.7375,-8.0519,0
5578919,0.5053,-0.3285,0.0279,-0.7975,-2.7964,-1.3900,-7.4206,0
5579085,0.5002,-0.3186,0.0187,-0.8050,-2.0113,-1.2918,-6.2278,0
5579252,0.4960,-0.3059,0.0104,-0.8126,-1.2495,-1.5252,-4.7124,0
5579419,0.4924,-0.2921,0.0030,-0.8199,-0.7672,-2.4442,-3.4824,0
5579585,0.4902,-0.2775,-0.0029,-0.8263,-0.3768,-2.9304,-2.6190,0
5579752,0.4899,-0.2629,-0.0070,-0.8311,-0.2929,-2.6467,-1.9395,0
5579919,0.4905,-0.2496,-0.0093,-0.8349,-0.3235,-1.9252,-1.5284,0
5580085,0.4912,-0.2355,-0.0092,-0.8386,-0.1918,-0.9378,-1.9013,0
5580252,0.4923,-0.2204,-0.0080,-0.8420,0.2092,-0.0721,-2.0201,0
5580419,0.4932,-0.2054,-0.0065,-0.8453,0.5571,0.2598,-1.2775,0
5580585,0.4940,-0.1901,-0.0048,-0.8484,0.4697,0.1947,-0.0470,0
5580752,0.4957,-0.1730,-0.0012,-0.8511,0.4238,-0.5945,0.5762,0
5580919,0.4973,-0.1559,0.0030,-0.8534,0.6687,-1.1002,0.8425,0
5581085,0.4996,-0.1386,0.0064,-0.8551,0.9352,-1.7180,1.0990,0
5581252,0.5046,-0.1195,0.0080,-0.8550,1.4924,-2.3119,1.1606,0
5581419,0.5104,-0.1011,0.0037,-0.8540,2.2116,-3.2613,2.2177,0
5581585,0.5166,-0.0865,-0.0068,-0.8518,2.7704,-4.6092,6.2565,0
5581752,0.5233,-0.0769,-0.0190,-0.8484,2.3079,-4.9600,11.5367,0
5581919,0.5307,-0.0734,-0.0297,-0.8439,2.1116,-3.0815,14.7137,0
5582085,0.5399,-0.0748,-0.0353,-0.8377,2.2144,-0.4796,15.7021,0
5582252,0.5496,-0.0821,-0.0353,-0.8306,2.3368,1.6985,15.5651,0
5582419,0.5594,-0.0937,-0.0296,-0.8230,2.5225,3.2896,14.5977,0
5582585,0.5693,-0.1087,-0.0177,-0.8147,2.4889,4.3492,13.1298,0
5582752,0.5780,-0.1263,-0.0013,-0.8062,2.4882,4.8716,10.1752,0
5582919,0.5847,-0.1462,0.0181,-0.7977,2.5172,4.8097,6.6059,0
5583085,0.5885,-0.1693,0.0363,-0.7898,2.1716,4.7245,3.3330,0
5583252,0.5878,-0.1971,0.0493,-0.7831,1.4392,4.8835,0.4900,0
5583419,0.5835,-0.2281,0.0564,-0.7774,0.7024,4.7019,-2.4094,0
5583585,0.5774,-0.2594,0.0592,-0.7719,-0.1836,4.4242,-4.0794,0
5583752,0.5707,-0.2887,0.0609,-0.7663,-1.3422,4.1018,-5.5671,0
5583919,0.5629,-0.3150,0.0620,-0.7617,-2.3607,3.5967,-7.0054,0
5584085,0.5548,-0.3371,0.0636,-0.7579,-3.3314,2.7858,-8.0742,0
5584252,0.5471,-0.3547,0.0655,-0.7554,-4.1810,1.8056,-8.7215,0
5584419,0.5391,-0.3675,0.0669,-0.7549,-5.1282,0.6307,-9.3832,0
5584585,0.5309,-0.3755,0.0664,-0.7568,-5.6663,-0.5013,-9.7860,0
5584752,0.5237,-0.3786,0.0654,-0.7604,-5.9971,-1.6781,-9.8273,0
5584919,0.5174,-0.3768,0.0629,-0.7658,-6.1112,-2.3433,-9.8864,0
5585085,0.5116,-0.3714,0.0582,-0.7726,-5.8412,-2.6925,-9.7304,0
5585252,0.5059,-0.3628,0.0507,-0.7809,-5.1267,-3.1178,-9.4656,0
5585419,0.5007,-0.3514,0.0414,-0.7900,-4.3268,-3.5018,-8.9677,0
5585585,0.4965,-0.3363,0.0325,-0.7996,-3.5638,-3.8954,-8.1891,0
5585752,0.4927,-0.3181,0.0253,-0.8096,-2.7524,-3.7600,-6.9712,0
5585919,0.4886,-0.2974,0.0198,-0.8201,-2.1050,-3.2519,-5.9608,0
5586085,0.4841,-0.2753,0.0160,-0.8304,-1.1495,-3.4156,-5.2858,0
5586252,0.4803,-0.2526,0.0123,-0.8398,-0.4162,-3.7303,-4.8138,0
5586419,0.4789,-0.2288,0.0090,-0.8475,0.5378,-3.3117,-3.4953,0
5586585,0.4794,-0.2062,0.0059,-0.8530,1.2471,-2.0326,-1.5506,0
5586752,0.4822,-0.1866,0.0008,-0.8559,1.6787,-1.2509,0.0092,0
5586919,0.4851,-0.1674,-0.0042,-0.8583,1.8750,-0.6166,1.2113,0
5587085,0.4874,-0.1466,-0.0067,-0.8608,2.6261,0.0455,1.2771,0
5587252,0.4902,-0.1237,-0.0095,-0.8627,3.2024,0.0558,1.8791,0
5587419,0.4937,-0.1022,-0.0167,-0.8635,3.4856,-0.8283,4.3205,0
5587585,0.4975,-0.0884,-0.0334,-0.8623,3.2126,-1.7937,7.2466,0
5587752,0.5014,-0.0816,-0.0552,-0.8596,3.0909,-1.5528,9.2278,0
5587919,0.5065,-0.0780,-0.0742,-0.8555,2.4374,0.2082,10.4678,0
5588085,0.5110,-0.0768,-0.0883,-0.8516,1.6708,2.1162,11.0044,0
5588252,0.5144,-0.0765,-0.0945,-0.8489,0.8771,3.1505,11.7634,0
5588419,0.5188,-0.0747,-0.0885,-0.8470,0.4589,3.5003,12.0083,0
5588585,0.5256,-0.0726,-0.0721,-0.8446,0.3875,3.1553,11.2577,0
5588752,0.5323,-0.0726,-0.0512,-0.8419,0.7475,2.3081,9.6074,0
5588919,0.5373,-0.0786,-0.0334,-0.8390,1.3000,1.9157,8.1102,0
5589085,0.5407,-0.0932,-0.0226,-0.8358,1.2009,1.8406,7.3931,0
5589252,0.5437,-0.1144,-0.0151,-0.8313,1.1838,2.2907,6.8393,0
5589419,0.5463,-0.1396,-0.0076,-0.8258,1.3288,2.5985,5.9703,0
5589585,0.5482,-0.1658,0.0021,-0.8197,1.5974,3.3404,4.4893,0
5589752,0.5484,-0.1916,0.0134,-0.8139,1.5006,3.3987,2.5367,0
5589919,0.5459,-0.2171,0.0245,-0.8089,1.0021,3.1455,0.6198,0
5590085,0.5415,-0.2436,0.0332,-0.8040,0.3321,2.7548,-1.3977,0
5590252,0.5369,-0.2690,0.0409,-0.7985,-0.4439,2.4709,-2.5934,0
5590419,0.5323,-0.2928,0.0469,-0.7929,-1.2221,2.1617,-3.8434,0
5590585,0.5266,-0.3149,0.0505,-0.7880,-2.3058,1.9806,-4.8921,0
5590752,0.5199,-0.3350,0.0530,-0.7840,-3.1976,2.0316,-5.8524,0
5590919,0.5128,-0.3518,0.0571,-0.7810,-3.8540,1.5766,-5.9551,0
5591085,0.5048,-0.3629,0.0623,-0.7808,-4.6900,1.2158,-6.7440,0
5591252,0.4956,-0.3698,0.0673,-0.7830,-5.1362,1.0253,-7.2136,0
5591419,0.4853,-0.3730,0.0719,-0.7875,-5.5416,0.6918,-7.3889,0
5591585,0.4740,-0.3743,0.0743,-0.7936,-5.7238,0.5053,-7.7216,0
5591752,0.4619,-0.3735,0.0739,-0.8011,-5.8463,-0.0561,-8.1560,0
5591919,0.4491,-0.3687,0.0713,-0.8107,-5.9842,-0.6232,-8.9629,0
5592085,0.4359,-0.3581,0.0649,-0.8231,-5.9551,-1.5385,-10.3655,0
5592252,0.4237,-0.3420,0.0542,-0.8370,-5.5109,-3.1613,-11.3329,0
5592419,0.4145,-0.3205,0.0389,-0.8508,-4.1133,-4.8453,-11.5125,0
5592585,0.4100,-0.2925,0.0231,-0.8636,-2.4184,-6.0464,-10.4720,0
5592752,0.4088,-0.2597,0.0074,-0.8749,-0.4519,-5.3778,-8.4392,0
5592919,0.4080,-0.2286,-0.0083,-0.8839,1.3599,-3.7939,-6.0832,0
5593085,0.4083,-0.2027,-0.0246,-0.8897,2.5757,-3.2431,-3.5095,0
5593252,0.4115,-0.1812,-0.0379,-0.8924,2.8466,-2.4982,-0.1733,0
5593419,0.4159,-0.1623,-0.0468,-0.8936,2.4594,-2.1800,2.0701,0
5593585,0.4212,-0.1437,-0.0504,-0.8941,3.0480,-1.9770,1.4576,0
5593752,0.4276,-0.1251,-0.0504,-0.8938,3.4969,-1.4527,1.6836,0
5593919,0.4340,-0.1050,-0.0497,-0.8934,4.0818,-1.4568,2.4554,0
5594086,0.4406,-0.0863,-0.0516,-0.8921,4.2350,-1.3296,4.1218,0
5594252,0.4478,-0.0726,-0.0566,-0.8894,3.2928,-1.3543,7.3869,0
5594419,0.4555,-0.0639,-0.0616,-0.8858,2.3553,-1.5413,10.2226,0
5594586,0.4643,-0.0600,-0.0650,-0.8812,1.6538,-1.1928,10.9703,0
5594752,0.4749,-0.0586,-0.0664,-0.8756,1.4194,-0.7617,10.1106,0
5594919,0.4869,-0.0597,-0.0652,-0.8690,1.0478,-0.0962,9.6279,0
5595086,0.4989,-0.0612,-0.0611,-0.8623,0.6031,1.4005,9.9246,0
5595252,0.5106,-0.0639,-0.0530,-0.8558,0.4253,2.7749,10.7699,0
5595419,0.5214,-0.0694,-0.0409,-0.8495,0.5451,3.6248,11.0483,0
5595586,0.5308,-0.0790,-0.0265,-0.8434,0.6828,3.9975,10.5656,0
5595752,0.5395,-0.0927,-0.0105,-0.8368,0.9432,4.2274,9.1353,0
5595919,0.5476,-0.1104,0.0056,-0.8294,1.1794,4.8659,6.9204,0
5596086,0.5537,-0.1328,0.0178,-0.8219,1.2294,5.2451,4.4562,0
5596252,0.5580,-0.1586,0.0254,-0.8142,0.9580,5.5423,2.9690,0
5596419,0.5603,-0.1853,0.0310,-0.8067,0.6125,5.6058,1.2587,0
5596586,0.5593,-0.2126,0.0345,-0.8005,0.1038,5.7497,-0.3187,0
5596752,0.5549,-0.2406,0.0359,-0.7956,-0.5455,5.4508,-1.9961,0
5596919,0.5476,-0.2680,0.0359,-0.7918,-1.2634,4.7165,-3.9780,0
5597086,0.5387,-0.2929,0.0358,-0.7892,-2.0776,3.7758,-5.5908,0
5597252,0.5289,-0.3143,0.0364,-0.7875,-2.9027,2.5860,-6.8611,0
5597419,0.5190,-0.3318,0.0371,-0.7869,-3.6282,0.9262,-7.6839,0
5597586,0.5098,-0.3447,0.0371,-0.7874,-4.0917,-0.7503,-7.9884,0
5597752,0.5024,-0.3527,0.0369,-0.7886,-4.5795,-2.0675,-8.1542,0
5597919,0.4970,-0.3576,0.0352,-0.7898,-4.9311,-2.9189,-8.0776,0
5598086,0.4926,-0.3610,0.0308,-0.7912,-5.1335,-3.1055,-7.7925,0
5598252,0.4886,-0.3628,0.0242,-0.7932,-5.0777,-2.5406,-7.6866,0
5598419,0.4846,-0.3624,0.0158,-0.7960,-4.7078,-2.2936,-7.6948,0
5598586,0.4799,-0.3593,0.0073,-0.8003,-4.1949,-2.1063,-7.5394,0
5598752,0.4744,-0.3534,-0.0011,-0.8063,-3.7518,-2.0460,-7.7871,0
5598919,0.4685,-0.3449,-0.0093,-0.8133,-3.3013,-1.7833,-7.4420,0
5599086,0.4625,-0.3343,-0.0176,-0.8210,-2.9599,-1.9680,-6.9655,0
5599252,0.4577,-0.3210,-0.0239,-0.8288,-2.5381,-2.6009,-6.3437,0
5599419,0.4552,-0.3022,-0.0265,-0.8371,-1.9818,-2.9425,-6.6113,0
5599586,0.4552,-0.2778,-0.0274,-0.8455,-0.9192,-2.8886,-6.6373,0
5599752,0.4574,-0.2512,-0.0290,-0.8525,0.0461,-2.4781,-5.1983,0
5599919,0.4599,-0.2244,-0.0334,-0.8585,0.7439,-1.6066,-3.7040,0
5600086,0.4623,-0.1976,-0.0394,-0.8635,1.4566,-0.5224,-1.9161,0
5600252,0.4644,-0.1702,-0.0437,-0.8680,2.3110,-0.0543,-0.4812,0
5600419,0.4671,-0.1429,-0.0455,-0.8714,3.0932,0.7481,1.7347,0
5600586,0.4717,-0.1191,-0.0464,-0.8724,3.1976,1.0501,4.6109,0
5600752,0.4773,-0.0992,-0.0490,-0.8717,2.2679,0.3677,7.9017,0
5600919,0.4826,-0.0829,-0.0496,-0.8705,1.3473,-1.0485,10.6529,0
5601086,0.4877,-0.0700,-0.0467,-0.8690,1.0388,-2.3156,10.6088,0
5601252,0.4935,-0.0611,-0.0422,-0.8666,1.8231,-1.9984,8.2191,0
5601419,0.5002,-0.0569,-0.0422,-0.8630,1.8261,-0.5738,6.8462,0
5601586,0.5073,-0.0554,-0.0478,-0.8587,1.0990,0.5708,6.6543,0
5601752,0.5132,-0.0572,-0.0564,-0.8545,0.3519,1.8124,6.8898,0
5601919,0.5186,-0.0608,-0.0635,-0.8505,-0.2286,2.4500,7.0741,0
5602086,0.5242,-0.0642,-0.0664,-0.8466,-0.2428,2.6669,6.7452,0
5602252,0.5299,-0.0692,-0.0664,-0.8426,-0.2202,2.8018,6.8762,0
5602419,0.5351,-0.0769,-0.0649,-0.8388,-0.0529,2.7565,7.3269,0
5602586,0.5404,-0.0862,-0.0608,-0.8348,0.2205,3.0347,7.3581,0
5602752,0.5449,-0.0978,-0.0554,-0.8310,0.5308,3.5575,6.2615,0
5602919,0.5483,-0.1117,-0.0496,-0.8273,0.8850,3.7674,5.2800,0
5603086,0.5517,-0.1275,-0.0429,-0.8231,0.8642,4.0900,5.2608,0
5603252,0.5540,-0.1463,-0.0349,-0.8188,0.8926,4.2365,4.8156,0
5603419,0.5544,-0.1674,-0.0242,-0.8149,1.1037,4.1649,3.1808,0
5603586,0.5535,-0.1893,-0.0115,-0.8110,0.9461,4.0256,0.8900,0
5603752,0.5504,-0.2114,0.0016,-0.8077,0.4404,3.5096,-1.7856,0
5603919,0.5447,-0.2334,0.0136,-0.8054,-0.3628,3.1437,-4.0112,0
5604086,0.5368,-0.2548,0.0232,-0.8040,-1.4376,2.6668,-5.8156,0
5604252,0.5273,-0.2749,0.0301,-0.8034,-2.4829,2.0133,-6.8822,0
5604419,0.5168,-0.2924,0.0353,-0.8038,-3.3750,1.5301,-7.5260,0
5604586,0.5059,-0.3055,0.0402,-0.8057,-3.9460,0.8595,-7.8347,0
5604752,0.4942,-0.3144,0.0450,-0.8093,-4.4754,0.0998,-8.2686,0
5604919,0.4821,-0.3184,0.0482,-0.8148,-4.7964,-0.8546,-8.5723,0
5605086,0.4708,-0.3169,0.0504,-0.8218,-5.0626,-1.6929,-9.0591,0
5605252,0.4611,-0.3098,0.0511,-0.8299,-5.0495,-2.5848,-9.2374,0
5605419,0.4538,-0.2991,0.0478,-0.8381,-4.5242,-2.8788,-8.7312,0
5605586,0.4485,-0.2875,0.0394,-0.8454,-3.5274,-2.7773,-7.4142,0
5605752,0.4444,-0.2764,0.0279,-0.8516,-2.5953,-2.3522,-5.7416,0
5605919,0.4412,-0.2656,0.0146,-0.8571,-1.9328,-2.2466,-4.5221,0
5606086,0.4386,-0.2544,0.0009,-0.8619,-1.4504,-2.5903,-3.7075,0
5606252,0.4378,-0.2425,-0.0124,-0.8657,-1.1099,-2.8314,-2.8503,0
5606419,0.4381,-0.2308,-0.0254,-0.8684,-0.7470,-2.7426,-1.9190,0
5606586,0.4398,-0.2185,-0.0370,-0.8703,-0.2912,-1.9404,-1.1527,0
5606752,0.4424,-0.2054,-0.0464,-0.8718,0.1235,-0.8943,-0.6895,0
5606919,0.4445,-0.1919,-0.0535,-0.8733,0.4483,0.0216,-0.3939,0
5607086,0.4454,-0.1792,-0.0587,-0.8753,0.5278,0.3433,0.1688,0
5607252,0.4453,-0.1667,-0.0608,-0.8776,0.0720,-0.1325,1.2504,0
5607419,0.4457,-0.1526,-0.0577,-0.8802,-0.1627,-1.3167,1.2310,0
5607586,0.4478,-0.1362,-0.0515,-0.8822,0.2582,-2.6650,-0.3421,0
5607752,0.4521,-0.1196,-0.0462,-0.8827,0.4439,-2.5726,-0.2157,0
5607919,0.4582,-0.1039,-0.0442,-0.8816,0.5517,-2.23