DeviceTag: Xsens DOT,FirmwareVersion: 2.2.1,AppVersion: 2023.6.0,SyncStatus: Unknown (Synced/Un-synced),OutputRate: 60,FilterProfile: Unknown,Measurement Mode: Sensor fusion Mode - Extended (Euler),StartTime: 2024-03-09 13:04:44.984,© Movella Technologies B.V. 2005-2024
SampleTimeFine,Quat_W,Quat_X,Quat_Y,Quat_Z,FreeAcc_X,FreeAcc_Y,FreeAcc_Z,Status
19254427,0.9708,-0.0025,0.0111,0.2398,0.0042,-0.0004,-0.1277,0
19254594,0.9708,-0.0026,0.0112,0.2397,0.0119,-0.0103,-0.1167,0
19254761,0.9708,-0.0028,0.0113,0.2395,0.0103,0.0089,-0.1049,0
19254927,0.9709,-0.0029,0.0113,0.2393,0.0172,0.0133,-0.0973,0
19255094,0.9709,-0.0029,0.0113,0.2392,0.0211,0.0168,-0.1104,0
19255261,0.9709,-0.0030,0.0113,0.2391,0.0253,0.0051,-0.1000,0
19255428,0.9710,-0.0030,0.0114,0.2389,0.0030,0.0001,-0.1122,0
19255594,0.9710,-0.0031,0.0114,0.2389,0.0213,0.0258,-0.1138,0
19255761,0.9710,-0.0031,0.0115,0.2389,0.0263,0.0085,-0.0948,0
19255928,0.9710,-0.0031,0.0115,0.2388,0.0258,0.0212,-0.1055,0
19256094,0.9710,-0.0032,0.0116,0.2388,0.0207,0.0169,-0.1169,0
19256261,0.9710,-0.0032,0.0117,0.2387,0.0218,0.0295,-0.1020,0
19256428,0.9710,-0.0033,0.0118,0.2386,0.0239,0.0179,-0.1317,0
19256594,0.9710,-0.0033,0.0118,0.2386,0.0222,0.0288,-0.1105,0
19256761,0.9711,-0.0034,0.0119,0.2384,0.0182,0.0241,-0.0920,0
19256928,0.9711,-0.0034,0.0120,0.2382,0.0393,0.0208,-0.1202,0
19257094,0.9711,-0.0034,0.0121,0.2382,0.0329,0.0242,-0.1041,0
19257261,0.9712,-0.0035,0.0122,0.2381,0.0218,0.0242,-0.1206,0
19257428,0.9712,-0.0035,0.0123,0.2378,0.0224,0.0269,-0.0879,0
19257594,0.9712,-0.0036,0.0124,0.2377,0.0381,0.0195,-0.1077,0
19257761,0.9713,-0.0036,0.0125,0.2376,0.0286,0.0217,-0.1221,0
19257928,0.9713,-0.0037,0.0126,0.2375,0.0208,0.0447,-0.0920,0
19258094,0.9713,-0.0037,0.0127,0.2376,0.0328,0.0273,-0.1010,0
19258261,0.9713,-0.0038,0.0128,0.2374,0.0360,0.0130,-0.0931,0
19258428,0.9713,-0.0038,0.0129,0.2373,0.0400,0.0199,-0.1155,0
19258594,0.9714,-0.0039,0.0130,0.2371,0.0453,0.0330,-0.1102,0
19258761,0.9714,-0.0039,0.0131,0.2370,0.0463,0.0382,-0.0967,0
19258928,0.9715,-0.0040,0.0132,0.2368,0.0330,0.0316,-0.0823,0
19259094,0.9715,-0.0040,0.0133,0.2368,0.0651,0.0344,-0.1085,0
19259261,0.9715,-0.0041,0.0134,0.2368,0.0436,0.0363,-0.1125,0
19259428,0.9715,-0.0041,0.0135,0.2367,0.0487,0.0380,-0.1141,0
19259594,0.9715,-0.0042,0.0136,0.2365,0.0515,0.0500,-0.0987,0
19259761,0.9716,-0.0042,0.0137,0.2364,0.0617,0.0407,-0.0843,0
19259928,0.9716,-0.0042,0.0138,0.2362,0.0584,0.0495,-0.1132,0
19260094,0.9716,-0.0043,0.0139,0.2362,0.0713,0.0557,-0.1083,0
19260261,0.9716,-0.0043,0.0140,0.2361,0.0513,0.0445,-0.1091,0
19260428,0.9716,-0.0044,0.0141,0.2360,0.0621,0.0477,-0.1074,0
19260594,0.9717,-0.0044,0.0142,0.2359,0.0539,0.0506,-0.1130,0
19260761,0.9717,-0.0045,0.0143,0.2357,0.0601,0.0385,-0.0922,0
19260928,0.9717,-0.0045,0.0144,0.2356,0.0646,0.0592,-0.1149,0
19261094,0.9718,-0.0045,0.0145,0.2354,0.0668,0.0570,-0.1147,0
19261261,0.9718,-0.0046,0.0146,0.2352,0.0770,0.0592,-0.0978,0
19261428,0.9719,-0.0046,0.0147,0.2351,0.0795,0.0574,-0.0914,0
19261594,0.9719,-0.0047,0.0148,0.2348,0.0629,0.0566,-0.1021,0
19261761,0.9719,-0.0048,0.0149,0.2348,0.0831,0.0594,-0.1093,0
19261928,0.9719,-0.0048,0.0150,0.2348,0.0831,0.0791,-0.1087,0
19262094,0.9720,-0.0048,0.0151,0.2347,0.0718,0.0640,-0.1200,0
19262261,0.9720,-0.0049,0.0152,0.2346,0.0762,0.0723,-0.1181,0
19262428,0.9720,-0.0049,0.0153,0.2345,0.0878,0.0633,-0.1212,0
19262594,0.9720,-0.0050,0.0154,0.2345,0.0959,0.0729,-0.1106,0
19262761,0.9720,-0.0050,0.0155,0.2343,0.0784,0.0695,-0.0996,0
19262928,0.9720,-0.0051,0.0156,0.2345,0.0870,0.0763,-0.1109,0
19263094,0.9720,-0.0051,0.0157,0.2343,0.0911,0.0600,-0.1122,0
19263261,0.9720,-0.0052,0.0158,0.2343,0.0817,0.0702,-0.1246,0
19263428,0.9721,-0.0052,0.0158,0.2342,0.0880,0.0646,-0.0889,0
19263594,0.9721,-0.0053,0.0159,0.2340,0.0929,0.0692,-0.1151,0
19263761,0.9721,-0.0053,0.0161,0.2339,0.0922,0.0804,-0.1049,0
19263928,0.9721,-0.0054,0.0161,0.2338,0.0822,0.0863,-0.1141,0
19264094,0.9721,-0.0054,0.0162,0.2338,0.0932,0.0778,-0.1118,0
19264261,0.9722,-0.0054,0.0163,0.2336,0.0857,0.0887,-0.0790,0
19264428,0.9722,-0.0055,0.0164,0.2335,0.0837,0.0803,-0.0998,0
19264594,0.9722,-0.0055,0.0165,0.2333,0.0854,0.0813,-0.1216,0
19264761,0.9723,-0.0056,0.0166,0.2331,0.0944,0.0950,-0.1143,0
19264928,0.9723,-0.0056,0.0167,0.2330,0.1054,0.0904,-0.1128,0
19265094,0.9723,-0.0057,0.0168,0.2329,0.1108,0.0958,-0.0866,0
19265261,0.9724,-0.0057,0.0169,0.2328,0.0978,0.0886,-0.1111,0
19265428,0.9724,-0.0057,0.0169,0.2326,0.0952,0.0875,-0.1072,0
19265594,0.9724,-0.0058,0.0170,0.2325,0.1048,0.1025,-0.0839,0
19265761,0.9725,-0.0058,0.0171,0.2324,0.1137,0.0932,-0.1042,0
19265928,0.9725,-0.0059,0.0172,0.2323,0.1156,0.0862,-0.1238,0
19266094,0.9725,-0.0059,0.0173,0.2322,0.1161,0.0852,-0.1006,0
19266261,0.9725,-0.0060,0.0174,0.2321,0.1049,0.0936,-0.1146,0
19266428,0.9726,-0.0060,0.0175,0.2319,0.1138,0.0976,-0.0923,0
19266594,0.9726,-0.0061,0.0176,0.2318,0.1160,0.1053,-0.1054,0
19266761,0.9726,-0.0061,0.0177,0.2316,0.1200,0.1010,-0.0923,0
19266928,0.9727,-0.0061,0.0177,0.2315,0.1126,0.0886,-0.1087,0
19267094,0.9727,-0.0062,0.0178,0.2314,0.1209,0.0884,-0.1063,0
19267261,0.9727,-0.0062,0.0179,0.2313,0.1365,0.1118,-0.0927,0
19267428,0.9727,-0.0063,0.0180,0.2312,0.1365,0.0991,-0.1020,0
19267594,0.9728,-0.0063,0.0181,0.2310,0.1204,0.0940,-0.1274,0
19267761,0.9728,-0.0063,0.0182,0.2309,0.1300,0.1127,-0.1155,0
19267928,0.9728,-0.0064,0.0183,0.2308,0.1308,0.1139,-0.1091,0
19268094,0.9728,-0.0064,0.0183,0.2307,0.1371,0.1110,-0.1148,0
19268261,0.9729,-0.0064,0.0184,0.2306,0.1206,0.1065,-0.1075,0
19268428,0.9729,-0.0065,0.0185,0.2305,0.1212,0.0932,-0.1128,0
19268594,0.9729,-0.0065,0.0185,0.2304,0.1330,0.1025,-0.0993,0
19268761,0.9729,-0.0065,0.0186,0.2303,0.1320,0.1099,-0.1055,0
19268928,0.9730,-0.0066,0.0187,0.2302,0.1312,0.1146,-0.0987,0
19269094,0.9730,-0.0066,0.0188,0.2301,0.1452,0.1069,-0.0975,0
19269261,0.9730,-0.0066,0.0188,0.2299,0.1398,0.1138,-0.0968,0
19269428,0.9730,-0.0067,0.0189,0.2298,0.1409,0.1068,-0.1188,0
19269594,0.9731,-0.0067,0.0190,0.2296,0.1367,0.1026,-0.1161,0
19269761,0.9731,-0.0067,0.0190,0.2295,0.1496,0.1145,-0.0991,0
19269928,0.9731,-0.0068,0.0191,0.2294,0.1323,0.1145,-0.1072,0
19270094,0.9732,-0.0068,0.0192,0.2292,0.1426,0.1191,-0.1081,0
19270261,0.9732,-0.0068,0.0192,0.2291,0.1493,0.1129,-0.0972,0
19270428,0.9732,-0.0068,0.0193,0.2290,0.1551,0.1175,-0.0983,0
19270594,0.9732,-0.0069,0.0194,0.2289,0.1329,0.1264,-0.1011,0
19270761,0.9733,-0.0069,0.0194,0.2288,0.1358,0.1213,-0.1048,0
19270928,0.9733,-0.0069,0.0195,0.2286,0.1459,0.1290,-0.0992,0
19271094,0.9733,-0.0069,0.0196,0.2285,0.1440,0.1283,-0.0982,0
19271261,0.9733,-0.0070,0.0197,0.2284,0.1565,0.1235,-0.0977,0
19271428,0.9734,-0.0070,0.0197,0.2282,0.1501,0.1266,-0.0989,0
19271594,0.9734,-0.0070,0.0198,0.2281,0.1384,0.1228,-0.1200,0
19271761,0.9734,-0.0071,0.0198,0.2280,0.1603,0.1278,-0.0931,0
19271928,0.9735,-0.0071,0.0199,0.2279,0.1608,0.1331,-0.1063,0
19272095,0.9735,-0.0071,0.0200,0.2278,0.1661,0.1288,-0.1053,0
19272261,0.9735,-0.0071,0.0200,0.2277,0.1507,0.1352,-0.1107,0
19272428,0.9735,-0.0072,0.0201,0.2275,0.1531,0.1272,-0.1110,0
19272595,0.9736,-0.0072,0.0201,0.2274,0.1730,0.1284,-0.0803,0
19272761,0.9736,-0.0072,0.0202,0.2273,0.1745,0.1266,-0.1015,0
19272928,0.9736,-0.0073,0.0202,0.2272,0.1704,0.1335,-0.1103,0
19273095,0.9736,-0.0073,0.0203,0.2270,0.1436,0.1383,-0.1056,0
19273261,0.9737,-0.0073,0.0203,0.2269,0.1585,0.1360,-0.0910,0
19273428,0.9737,-0.0073,0.0204,0.2268,0.1564,0.1320,-0.0947,0
19273595,0.9737,-0.0073,0.0204,0.2266,0.1641,0.1389,-0.1056,0
19273761,0.9738,-0.0074,0.0205,0.2265,0.1647,0.1307,-0.0985,0
19273928,0.9738,-0.0074,0.0205,0.2264,0.1702,0.1427,-0.1052,0
19274095,0.9730,-0.0024,0.0104,0.2307,0.0062,-0.0114,-0.0975,0
19274261,0.9730,-0.0024,0.0104,0.2306,-0.0044,0.0041,-0.1052,0
19274428,0.9730,-0.0024,0.0104,0.2306,-0.0005,0.0029,-0.1071,0
19274595,0.9730,-0.0024,0.0104,0.2305,0.0026,-0.0028,-0.1118,0
19274761,0.9730,-0.0024,0.0104,0.2305,0.0019,0.0034,-0.1197,0
19274928,0.9730,-0.0024,0.0104,0.2305,-0.0019,0.0014,-0.1075,0
19275095,0.9730,-0.0024,0.0104,0.2305,0.0018,0.0047,-0.0950,0
19275261,0.9730,-0.0024,0.0104,0.2305,-0.0014,0.0128,-0.1301,0
19275428,0.9730,-0.0024,0.0104,0.2307,-0.0010,-0.0066,-0.0938,0
19275595,0.9730,-0.0024,0.0104,0.2307,-0.0033,-0.0058,-0.0793,0
19275761,0.9729,-0.0024,0.0104,0.2308,0.0013,-0.0071,-0.0985,0
19275928,0.9729,-0.0024,0.0104,0.2309,0.0096,-0.0013,-0.0962,0
19276095,0.9729,-0.0024,0.0104,0.2309,-0.0003,-0.0003,-0.1123,0
19276261,0.9729,-0.0025,0.0104,0.2310,0.0024,0.0035,-0.1175,0
19276428,0.9729,-0.0025,0.0104,0.2310,0.0034,0.0031,-0.1023,0
19276595,0.9729,-0.0025,0.0104,0.2311,-0.0097,-0.0101,-0.0967,0
19276761,0.9729,-0.0025,0.0104,0.2312,0.0015,-0.0081,-0.1299,0
19276928,0.9728,-0.0025,0.0104,0.2312,-0.0078,-0.0040,-0.1012,0
19277095,0.9728,-0.0025,0.0104,0.2313,0.0095,-0.0118,-0.0895,0
19277261,0.9728,-0.0025,0.0104,0.2313,-0.0026,0.0015,-0.0975,0
19277428,0.9728,-0.0025,0.0104,0.2314,0.0040,0.0152,-0.1146,0
19277595,0.9728,-0.0025,0.0104,0.2315,0.0002,-0.0034,-0.1031,0
19277761,0.9728,-0.0025,0.0104,0.2315,0.0012,-0.0071,-0.0910,0
19277928,0.9728,-0.0025,0.0104,0.2316,0.0008,-0.0047,-0.1016,0
19278095,0.9727,-0.0025,0.0104,0.2316,0.0024,-0.0073,-0.1047,0
19278261,0.9727,-0.0025,0.0104,0.2317,-0.0103,-0.0079,-0.1204,0
19278428,0.9727,-0.0025,0.0104,0.2317,0.0070,0.0040,-0.0954,0
19278595,0.9727,-0.0025,0.0104,0.2318,0.0045,0.0061,-0.1161,0
19278761,0.9727,-0.0025,0.0104,0.2319,0.0006,-0.0004,-0.1168,0
19278928,0.9727,-0.0025,0.0104,0.2319,0.0103,-0.0021,-0.0868,0
19279095,0.9727,-0.0025,0.0104,0.2320,0.0126,0.0128,-0.1111,0
19279261,0.9727,-0.0025,0.0104,0.2320,-0.0004,0.0128,-0.1144,0
19279428,0.9726,-0.0025,0.0104,0.2321,-0.0028,0.0047,-0.0821,0
19279595,0.9726,-0.0025,0.0104,0.2321,0.0054,0.0064,-0.0951,0
19279761,0.9726,-0.0025,0.0104,0.2322,-0.0032,0.0041,-0.0946,0
19279928,0.9726,-0.0025,0.0104,0.2322,-0.0002,-0.0059,-0.0988,0
19280095,0.9726,-0.0025,0.0104,0.2322,-0.0043,0.0040,-0.1012,0
19280261,0.9726,-0.0025,0.0104,0.2323,-0.0033,0.0001,-0.0849,0
19280428,0.9726,-0.0025,0.0104,0.2323,0.0061,0.0037,-0.1024,0
19280595,0.9726,-0.0025,0.0104,0.2323,0.0072,0.0090,-0.1203,0
19280761,0.9726,-0.0025,0.0104,0.2324,0.0020,-0.0002,-0.0935,0
19280928,0.9726,-0.0025,0.0104,0.2324,-0.0038,-0.0076,-0.1023,0
19281095,0.9726,-0.0026,0.0104,0.2324,-0.0037,0.0092,-0.0851,0
19281261,0.9725,-0.0026,0.0104,0.2325,-0.0081,0.0075,-0.0827,0
19281428,0.9725,-0.0026,0.0104,0.2325,0.0120,-0.0044,-0.0778,0
19281595,0.9725,-0.0026,0.0104,0.2325,0.0102,0.0078,-0.0945,0
19281761,0.9725,-0.0026,0.0104,0.2326,0.0089,0.0125,-0.1081,0
19281928,0.9725,-0.0026,0.0104,0.2326,-0.0077,0.0069,-0.0871,0
19282095,0.9725,-0.0026,0.0104,0.2327,-0.0169,-0.0046,-0.0953,0
19282261,0.9725,-0.0026,0.0104,0.2327,0.0041,0.0024,-0.1115,0
19282428,0.9725,-0.0026,0.0104,0.2327,0.0138,-0.0079,-0.1007,0
19282595,0.9725,-0.0026,0.0104,0.2328,0.0005,0.0168,-0.1018,0
19282761,0.9725,-0.0026,0.0104,0.2328,0.0056,0.0128,-0.0810,0
19282928,0.9725,-0.0026,0.0104,0.2329,-0.0160,0.0257,-0.0935,0
19283095,0.9724,-0.0026,0.0104,0.2329,0.0080,-0.0040,-0.0522,0
19283261,0.9724,-0.0026,0.0104,0.2329,-0.0078,-0.0011,-0.1536,0
19283428,0.9724,-0.0026,0.0104,0.2329,-0.0033,0.0053,-0.0670,0
19283595,0.9724,-0.0026,0.0104,0.2330,0.0048,-0.0215,-0.1195,0
19283761,0.9724,-0.0026,0.0104,0.2330,0.0023,-0.0145,-0.0803,0
19283928,0.9724,-0.0026,0.0104,0.2331,-0.0099,-0.0032,-0.0666,0
19284095,0.9724,-0.0027,0.0104,0.2331,-0.0019,0.0059,-0.1340,0
19284261,0.9724,-0.0027,0.0104,0.2331,0.0095,0.0028,0.0126,0
19284428,0.9724,-0.0027,0.0104,0.2331,-0.0030,-0.0107,-0.2363,0
19284595,0.9724,-0.0027,0.0104,0.2332,-0.0172,0.0131,-0.0661,0
19284761,0.9724,-0.0027,0.0104,0.2332,0.0124,-0.0022,-0.1179,0
19284928,0.9724,-0.0027,0.0104,0.2332,0.0019,0.0033,-0.1162,0
19285095,0.9724,-0.0027,0.0103,0.2333,-0.0121,-0.0066,-0.0616,0
19285261,0.9724,-0.0027,0.0104,0.2333,0.0055,-0.0094,-0.1613,0
19285428,0.9723,-0.0027,0.0104,0.2333,-0.0071,0.0128,-0.0668,0
19285595,0.9723,-0.0027,0.0104,0.2334,0.0082,0.0131,-0.1053,0
19285761,0.9723,-0.0027,0.0104,0.2334,-0.0198,0.0044,-0.1212,0
19285928,0.9723,-0.0027,0.0104,0.2334,0.0144,-0.0176,-0.0969,0
19286095,0.9723,-0.0027,0.0104,0.2335,0.0056,0.0098,-0.0927,0
19286261,0.9723,-0.0027,0.0104,0.2335,-0.0081,-0.0160,-0.0913,0
19286428,0.9723,-0.0027,0.0104,0.2335,-0.0054,0.0113,-0.1108,0
19286595,0.9723,-0.0027,0.0104,0.2335,-0.0043,-0.0029,-0.0991,0
19286761,0.9723,-0.0027,0.0104,0.2336,-0.0013,0.0063,-0.1144,0
19286928,0.9723,-0.0027,0.0104,0.2336,-0.0100,0.0162,-0.1200,0
19287095,0.9723,-0.0027,0.0104,0.2336,-0.0027,-0.0073,-0.1218,0
19287261,0.9723,-0.0027,0.0104,0.2336,0.0152,0.0032,-0.1325,0
19287428,0.9723,-0.0027,0.0104,0.2337,0.0176,-0.0171,-0.0692,0
19287595,0.9723,-0.0027,0.0104,0.2337,-0.0478,0.0083,-0.1572,0
19287761,0.9722,-0.0027,0.0104,0.2337,-0.0205,0.0085,-0.0914,0
19287928,0.9722,-0.0027,0.0104,0.2337,0.0166,0.0141,-0.1110,0
19288095,0.9722,-0.0027,0.0104,0.2338,-0.0197,0.0135,-0.0927,0
19288261,0.9722,-0.0027,0.0104,0.2338,-0.0271,-0.0064,-0.1065,0
19288428,0.9722,-0.0027,0.0104,0.2338,0.0155,-0.0126,-0.1498,0
19288595,0.9722,-0.0027,0.0104,0.2339,-0.0108,0.0242,-0.1334,0
19288762,0.9722,-0.0027,0.0104,0.2339,0.0398,0.0010,0.0146,0
19288928,0.9722,-0.0027,0.0104,0.2339,0.0217,-0.0223,-0.1571,0
19289095,0.9722,-0.0027,0.0104,0.2340,-0.0244,0.0275,-0.0586,0
19289262,0.9722,-0.0027,0.0104,0.2340,-0.0231,0.0381,-0.0696,0
19289428,0.9722,-0.0028,0.0104,0.2340,0.0296,-0.0254,-0.1818,0
19289595,0.9722,-0.0027,0.0104,0.2340,0.0028,0.0123,-0.0410,0
19289762,0.9722,-0.0027,0.0104,0.2340,-0.0246,0.0202,-0.1646,0
19289928,0.9722,-0.0027,0.0104,0.2341,-0.0160,0.0183,-0.0893,0
19290095,0.9722,-0.0027,0.0104,0.2341,0.0179,-0.0250,-0.0984,0
19290262,0.9722,-0.0027,0.0104,0.2341,0.0130,0.0082,-0.0876,0
19290428,0.9721,-0.0027,0.0104,0.2341,-0.0097,0.0102,-0.1089,0
19290595,0.9721,-0.0027,0.0104,0.2341,0.0045,-0.0113,-0.1201,0
19290762,0.9721,-0.0027,0.0104,0.2341,0.0090,-0.0022,-0.0948,0
19290928,0.9721,-0.0027,0.0104,0.2342,-0.0010,0.0009,-0.1172,0
19291095,0.9721,-0.0027,0.0104,0.2342,-0.0280,0.0269,-0.0862,0
19291262,0.9721,-0.0027,0.0104,0.2342,-0.0234,-0.0084,-0.1016,0
19291428,0.9721,-0.0027,0.0104,0.2342,0.0072,0.0033,-0.0903,0
19291595,0.9721,-0.0027,0.0104,0.2343,0.0089,-0.0131,-0.1125,0
19291762,0.9721,-0.0027,0.0104,0.2343,-0.0121,0.0246,-0.1158,0
19291928,0.9721,-0.0027,0.0104,0.2343,0.0124,-0.0105,-0.0977,0
19292095,0.9721,-0.0027,0.0104,0.2343,-0.0023,-0.0296,-0.1114,0
19292262,0.9721,-0.0027,0.0104,0.2343,0.0052,0.0180,-0.0733,0
19292428,0.9721,-0.0027,0.0104,0.2344,-0.0078,0.0060,-0.0897,0
19292595,0.9721,-0.0027,0.0104,0.2344,0.0123,-0.0267,-0.0868,0
19292762,0.9711,0.0006,0.0086,0.2386,0.4276,0.8469,0.3500,0
19292928,0.9591,-0.0020,0.0008,0.2831,0.2427,3.3208,0.5339,0
19293095,0.9339,-0.0069,-0.0219,0.3569,-0.3718,2.4921,1.4833,0
19293262,0.9181,-0.0100,-0.0235,0.3955,-0.7289,-16.5876,-2.5583,0
19293428,0.9248,-0.0237,-0.0341,0.3781,-1.1552,-6.4049,3.7833,0
19293595,0.9388,-0.0526,-0.0314,0.3389,-0.0981,11.8736,-4.7339,0
19293762,0.9407,-0.0483,-0.0377,0.3337,-2.6518,2.2151,1.0631,0
19293928,0.9410,-0.0465,-0.0399,0.3328,1.7534,-0.1722,-0.6795,0
19294095,0.9437,-0.0447,-0.0419,0.3251,1.3140,0.8906,0.2066,0
19294262,0.9460,-0.0377,-0.0495,0.3182,1.6699,1.1024,0.3762,0
19294428,0.9516,-0.0277,-0.0529,0.3013,1.3085,0.7814,1.1005,0
19294595,0.9567,-0.0179,-0.0519,0.2860,0.0119,3.5372,4.0738,0
19294762,0.9609,-0.0219,-0.0381,0.2732,-1.2734,-0.5023,6.9461,0
19294928,0.9648,-0.0446,-0.0060,0.2591,-1.3490,-1.0012,9.1521,0
19295095,0.9649,-0.0742,0.0381,0.2489,2.8400,-0.9297,5.4302,0
19295262,0.9635,-0.1124,0.0824,0.2285,2.9821,-0.4687,3.1801,0
19295428,0.9577,-0.1524,0.1282,0.2075,3.9402,0.3158,2.0288,0
19295595,0.9465,-0.1949,0.1748,0.1887,3.7588,0.6386,2.6736,0
19295762,0.9291,-0.2415,0.2230,0.1693,3.8662,1.2670,2.9249,0
19295928,0.9051,-0.2895,0.2724,0.1508,3.6624,2.5193,0.1159,0
19296095,0.8755,-0.3386,0.3139,0.1424,3.2618,-1.4843,-1.9880,0
19296262,0.8385,-0.3881,0.3561,0.1396,2.0172,-1.5542,-1.7506,0
19296428,0.7950,-0.4363,0.3972,0.1410,2.2004,-1.0878,-2.1867,0
19296595,0.7484,-0.4732,0.4436,0.1386,2.3779,0.2015,-2.4117,0
19296762,0.7037,-0.4962,0.4920,0.1287,1.3450,0.8796,-2.2857,0
19296928,0.6614,-0.5111,0.5375,0.1112,0.3317,1.4250,-3.1009,0
19297095,0.6227,-0.5207,0.5771,0.0898,-0.1988,0.7218,-3.3978,0
19297262,0.5866,-0.5292,0.6094,0.0662,-0.0954,0.6147,-3.2703,0
19297428,0.5487,-0.5435,0.6339,0.0418,0.3142,0.1667,-2.7423,0
19297595,0.5103,-0.5602,0.6523,0.0142,-0.4358,-0.0878,-1.9619,0
19297762,0.4687,-0.5765,0.6690,-0.0204,-1.7026,-0.8054,-2.7880,0
19297928,0.4229,-0.5914,0.6842,-0.0580,-1.9808,-1.3913,-3.2400,0
19298095,0.3837,-0.6022,0.6940,-0.0920,-2.2360,-2.0977,-3.0291,0
19298262,0.3541,-0.6059,0.7020,-0.1207,-2.1161,-2.1789,-2.3288,0
19298428,0.3328,-0.6028,0.7102,-0.1467,-0.7937,-0.8063,-0.7547,0
19298595,0.3149,-0.5989,0.7158,-0.1727,-0.3611,0.4451,-0.1143,0
19298762,0.2960,-0.5970,0.7190,-0.1973,-1.2770,-0.0937,-1.1130,0
19298928,0.2787,-0.5952,0.7212,-0.2190,-2.2393,-1.3669,-1.0435,0
19299095,0.2621,-0.5905,0.7243,-0.2409,-1.4130,-1.4030,-0.3380,0
19299262,0.2462,-0.5843,0.7275,-0.2621,-0.1695,-0.3978,0.5597,0
19299428,0.2326,-0.5766,0.7310,-0.2810,-0.7363,-0.2113,0.4859,0
19299595,0.2202,-0.5657,0.7366,-0.2981,-1.4401,-0.7740,0.4292,0
19299762,0.2121,-0.5526,0.7434,-0.3115,-1.2184,-0.9457,-0.2122,0
19299928,0.2062,-0.5396,0.7501,-0.3218,-0.7873,-0.4880,-0.5089,0
19300095,0.2007,-0.5291,0.7562,-0.3286,0.0802,1.0376,-0.6882,0
19300262,0.1952,-0.5200,0.7616,-0.3337,0.3783,2.5814,-0.6236,0
19300428,0.1885,-0.5117,0.7660,-0.3403,-0.2340,2.7709,-1.0222,0
19300595,0.1800,-0.5024,0.7709,-0.3476,-1.6016,1.7429,-1.7670,0
19300762,0.1692,-0.4888,0.7781,-0.3563,-1.9641,0.7974,-0.8314,0
19300928,0.1572,-0.4737,0.7851,-0.3667,-0.9437,0.2481,-0.1447,0
19301095,0.1458,-0.4627,0.7906,-0.3736,-0.1558,0.3702,0.4473,0
19301262,0.1330,-0.4563,0.7946,-0.3778,0.4755,0.6554,0.8155,0
19301428,0.1200,-0.4529,0.7971,-0.3809,0.0078,0.4928,0.0461,0
19301595,0.1086,-0.4502,0.7992,-0.3832,-1.4957,-0.9092,-0.2801,0
19301762,0.1012,-0.4457,0.8023,-0.3840,-2.6141,-1.7841,0.4798,0
19301928,0.0961,-0.4404,0.8058,-0.3841,-2.2844,-1.4553,1.4625,0
19302095,0.0897,-0.4368,0.8079,-0.3852,-0.4393,0.3760,1.9180,0
19302262,0.0809,-0.4407,0.8078,-0.3830,-0.0869,0.1799,1.1595,0
19302428,0.0690,-0.4507,0.8062,-0.3771,-0.5339,0.5183,0.8183,0
19302595,0.0585,-0.4551,0.8063,-0.3733,-1.0533,-0.3860,1.4021,0
19302762,0.0533,-0.4550,0.8077,-0.3712,-0.1130,0.1574,1.0922,0
19302928,0.0482,-0.4564,0.8073,-0.3711,0.6962,0.9654,0.3896,0
19303095,0.0410,-0.4600,0.8050,-0.3725,1.0431,0.7091,0.3997,0
19303262,0.0328,-0.4684,0.7990,-0.3757,0.7489,0.1515,0.4043,0
19303428,0.0270,-0.4851,0.7900,-0.3740,0.2227,-0.4863,1.2309,0
19303595,0.0182,-0.5047,0.7788,-0.3722,0.5256,0.3995,-0.0195,0
19303762,0.0039,-0.5279,0.7647,-0.3695,1.1764,0.9032,0.6877,0
19303928,-0.0133,-0.5487,0.7491,-0.3709,0.2740,0.1188,1.0384,0
19304095,-0.0267,-0.5628,0.7372,-0.3730,-0.7672,-0.9717,0.9545,0
19304262,-0.0381,-0.5734,0.7275,-0.3749,0.0186,-0.6335,1.0082,0
19304428,-0.0485,-0.5826,0.7187,-0.3764,0.1061,-0.5971,0.5248,0
19304595,-0.0538,-0.5893,0.7125,-0.3770,-0.5748,-0.8688,0.3642,0
19304762,-0.0538,-0.5922,0.7101,-0.3771,-0.1933,-0.5632,0.2852,0
19304928,-0.0522,-0.5943,0.7095,-0.3751,-0.2919,-0.4440,-0.1271,0
19305095,-0.0465,-0.5952,0.7121,-0.3694,-1.1461,-1.3605,0.3265,0
19305262,-0.0324,-0.5911,0.7206,-0.3610,-1.4787,-1.7607,0.8675,0
19305429,-0.0113,-0.5804,0.7357,-0.3490,-1.2938,-1.6939,0.6234,0
19305595,0.0168,-0.5645,0.7561,-0.3308,-1.1535,-1.7696,0.4213,0
19305762,0.0518,-0.5425,0.7803,-0.3067,-0.8748,-1.3793,0.3824,0
19305929,0.0910,-0.5148,0.8051,-0.2802,-0.6716,-1.1581,0.5335,0
19306095,0.1344,-0.4829,0.8276,-0.2526,0.3352,-0.9804,1.0467,0
19306262,0.1828,-0.4496,0.8466,-0.2182,0.9720,-1.1870,0.7594,0
19306429,0.2342,-0.4148,0.8609,-0.1788,1.0652,-1.8429,0.7127,0
19306595,0.2916,-0.3734,0.8696,-0.1391,-0.0963,-3.0941,0.2397,0
19306762,0.3539,-0.3249,0.8716,-0.0976,0.9177,-2.3295,-0.1400,0
19306929,0.4101,-0.2781,0.8667,-0.0571,2.3203,-0.7876,-0.3599,0
19307095,0.4546,-0.2442,0.8562,-0.0242,1.3168,-0.3056,-0.9731,0
19307262,0.4924,-0.2112,0.8443,0.0032,-0.5207,0.6102,-2.8834,0
19307429,0.5294,-0.1715,0.8300,0.0361,-0.0652,2.0310,-3.6673,0
19307595,0.5656,-0.1294,0.8110,0.0746,0.9071,2.1850,-2.9485,0
19307762,0.6005,-0.0799,0.7872,0.1156,-0.4961,1.4161,-3.1912,0
19307929,0.6312,-0.0191,0.7591,0.1583,0.7768,0.7309,-2.5791,0
19308095,0.6547,0.0355,0.7291,0.1965,1.4882,-0.5621,-0.3455,0
19308262,0.6672,0.0739,0.7067,0.2235,0.9823,-0.6778,0.6727,0
19308429,0.6690,0.0968,0.6953,0.2442,-0.1124,0.6954,-0.9815,0
19308595,0.6647,0.1176,0.6893,0.2631,-0.4280,1.5273,-2.4742,0
19308762,0.6531,0.1385,0.6888,0.2826,-0.3341,1.3130,-1.5342,0
19308929,0.6324,0.1525,0.6982,0.2987,0.0235,0.0340,0.7049,0
19309095,0.6028,0.1595,0.7184,0.3085,-0.0841,0.0498,1.3543,0
19309262,0.5621,0.1610,0.7472,0.3160,-0.0727,-0.2570,1.8165,0
19309429,0.5123,0.1528,0.7820,0.3204,0.0394,-1.4883,2.0023,0
19309595,0.4631,0.1359,0.8152,0.3201,0.6579,-0.7899,0.7795,0
19309762,0.4170,0.1177,0.8427,0.3196,-0.4533,1.1474,-0.0937,0
19309929,0.3777,0.1057,0.8626,0.3195,0.0116,1.7155,0.5749,0
19310095,0.3416,0.0979,0.8788,0.3184,0.1868,1.0886,2.3150,0
19310262,0.3049,0.0917,0.8947,0.3132,0.5522,1.0232,1.8307,0
19310429,0.2686,0.0850,0.9107,0.3022,0.3134,0.0363,1.1175,0
19310595,0.2355,0.0755,0.9263,0.2843,0.6381,-0.4685,0.6911,0
19310762,0.2098,0.0630,0.9405,0.2597,0.6508,0.7656,0.5011,0
19310929,0.1863,0.0497,0.9534,0.2322,0.3128,1.9788,0.5252,0
19311095,0.1627,0.0365,0.9651,0.2018,0.1619,1.9487,0.2268,0
19311262,0.1397,0.0223,0.9752,0.1701,0.2197,1.8006,-0.1707,0
19311429,0.1168,0.0037,0.9833,0.1396,0.2805,1.9688,-0.6305,0
19311595,-0.1078,0.0280,-0.9864,-0.1207,-0.9576,3.4294,-3.1168,0
19311762,-0.0972,0.0569,-0.9880,-0.1055,-2.0640,0.4057,-0.8056,0
19311929,-0.0797,0.0879,-0.9901,-0.0748,-0.8485,0.1593,-0.4715,0
19312095,-0.0606,0.1327,-0.9885,-0.0402,-1.3096,0.8958,-0.2290,0
19312262,-0.0370,0.1749,-0.9838,-0.0099,-1.5339,0.5627,-0.2252,0
19312429,0.0121,-0.2152,0.9763,-0.0198,0.0626,0.7016,-0.0558,0
19312595,-0.0143,-0.2547,0.9658,-0.0468,0.1734,2.0654,-0.1486,0
19312762,-0.0449,-0.2934,0.9524,-0.0691,-0.4024,3.7148,-0.9187,0
19312929,-0.0743,-0.3213,0.9397,-0.0908,-0.7722,0.4390,-0.3227,0
19313095,-0.1043,-0.3442,0.9260,-0.1149,1.3065,3.2007,-0.5914,0
19313262,-0.1353,-0.3667,0.9092,-0.1432,2.4327,3.0562,0.1629,0
19313429,-0.1656,-0.3913,0.8876,-0.1781,0.7553,2.4775,-1.2013,0
19313595,-0.1905,-0.4115,0.8658,-0.2117,-0.8889,1.0399,-1.6928,0
19313762,-0.2105,-0.4219,0.8482,-0.2412,-1.9031,0.1583,-1.8292,0
19313929,-0.2207,-0.4239,0.8370,-0.2667,-1.7284,-0.5296,-1.0652,0
19314095,-0.2228,-0.4236,0.8286,-0.2906,-0.2800,-1.0914,0.0061,0
19314262,-0.2174,-0.4272,0.8185,-0.3167,-0.7055,-1.1665,-0.1465,0
19314429,-0.2204,-0.4280,0.7998,-0.3585,-2.2675,1.7969,-0.7058,0
19314595,-0.2430,-0.4204,0.7612,-0.4298,-3.1383,1.3999,-2.0759,0
19314762,-0.2740,-0.4018,0.7060,-0.5148,-0.9914,0.7871,-0.9936,0
19314929,-0.2910,-0.3908,0.6681,-0.5624,-0.4124,-7.5856,0.5602,0
19315095,-0.2885,-0.3916,0.6603,-0.5722,0.9635,-1.6639,1.9241,0
19315262,-0.2891,-0.4018,0.6409,-0.5867,1.5759,-1.1338,1.1462,0
19315429,-0.2915,-0.4261,0.6108,-0.6003,0.0704,-0.2162,0.7438,0
19315595,-0.2987,-0.4534,0.5775,-0.6097,-2.0995,-1.2325,0.5388,0
19315762,-0.3064,-0.4590,0.5642,-0.6141,-2.4889,-2.1157,1.1680,0
19315929,-0.3193,-0.4461,0.5678,-0.6137,0.1400,-1.4859,1.9577,0
19316095,-0.3332,-0.4329,0.5743,-0.6097,1.9352,-0.0486,1.6600,0
19316262,-0.3483,-0.4232,0.5777,-0.6048,0.7662,-0.1094,0.9707,0
19316429,-0.3633,-0.4149,0.5811,-0.5985,-1.1109,-1.3610,0.3027,0
19316595,-0.3792,-0.4016,0.5908,-0.5881,-1.3204,-1.7374,-0.0169,0
19316762,-0.3966,-0.3836,0.6071,-0.5719,-0.5533,-1.9734,0.9383,0
19316929,0.4114,0.3627,-0.6236,0.5571,1.7278,0.2554,1.6976,0
19317095,0.4234,0.3486,-0.6279,0.5523,2.3958,1.3664,1.4957,0
19317262,0.4376,0.3332,-0.6182,0.5616,1.2232,0.9002,0.8270,0
19317429,0.4636,0.3072,-0.5880,0.5873,-0.4490,0.5815,-0.2942,0
19317595,0.4875,0.2823,-0.5636,0.6041,-2.3242,-1.6529,0.5382,0
19317762,0.4966,0.2606,-0.5739,0.5968,-1.0458,-0.9508,-0.6286,0
19317929,0.4996,0.2464,-0.5872,0.5873,1.0522,0.4833,0.3194,0
19318095,0.5024,0.2373,-0.5943,0.5815,0.9811,0.2847,0.4715,0
19318262,0.5037,0.2332,-0.5983,0.5779,0.3764,-0.2511,0.6241,0
19318429,0.5067,0.2308,-0.5999,0.5746,0.0008,-0.1027,0.2845,0
19318595,0.5118,0.2281,-0.6001,0.5710,-0.3289,-0.0398,-0.4202,0
19318762,0.5139,0.2252,-0.6081,0.5616,-1.3131,-0.4714,-1.9221,0
19318929,0.5159,0.2182,-0.6213,0.5479,-0.1584,0.0835,-0.6037,0
19319095,0.5179,0.2072,-0.6332,0.5365,1.0421,1.2727,0.1728,0
19319262,0.5235,0.2037,-0.6367,0.5282,1.1715,1.2462,0.7756,0
19319429,0.5296,0.2036,-0.6367,0.5222,0.3530,0.7224,-0.2203,0
19319595,0.5331,0.2083,-0.6347,0.5192,-0.2553,0.3255,0.1840,0
19319762,0.5332,0.2135,-0.6329,0.5192,-0.5858,0.6894,-0.9769,0
19319929,0.5336,0.2160,-0.6336,0.5169,-2.0597,-0.2159,-0.8915,0
19320095,0.5330,0.2145,-0.6388,0.5117,-0.3982,0.1148,-1.1274,0
19320262,0.5343,0.2125,-0.6429,0.5060,1.6568,1.2014,0.0728,0
19320429,0.5352,0.2152,-0.6403,0.5072,2.6931,1.7823,0.8413,0
19320595,0.5340,0.2241,-0.6268,0.5212,1.8714,1.3226,0.6607,0
19320762,0.5314,0.2324,-0.6125,0.5370,-0.5252,-0.5649,0.7916,0
19320929,0.5273,0.2363,-0.6037,0.5492,-0.3815,0.1134,-0.3550,0
19321095,0.5229,0.2389,-0.5950,0.5616,0.0087,0.9676,-0.4844,0
19321262,0.5193,0.2409,-0.5878,0.5717,0.6035,1.1456,-0.1679,0
19321429,0.5154,0.2433,-0.5832,0.5789,0.5814,0.6199,-0.4675,0
19321595,0.5092,0.2464,-0.5847,0.5815,0.5590,0.2137,-0.3334,0
19321762,0.5081,0.2497,-0.5747,0.5909,2.3660,3.0543,3.3141,0
19321929,0.5119,0.2509,-0.5476,0.6125,0.2659,-1.0674,0.3410,0
19322096,0.5164,0.2532,-0.5338,0.6199,-1.1402,-0.8228,-1.0596,0
19322262,0.5252,0.2520,-0.5287,0.6174,0.0587,0.6837,-1.5650,0
19322429,0.5301,0.2501,-0.5286,0.6140,-1.1951,0.4978,-2.7257,0
19322596,0.5409,0.2431,-0.5360,0.6009,-1.3945,-0.3617,-2.5196,0
19322762,0.5570,0.2373,-0.5512,0.5741,0.2085,-0.7032,-0.0044,0
19322929,0.5693,0.2318,-0.5660,0.5494,0.6638,-1.0254,1.2497,0
19323096,0.5780,0.2292,-0.5776,0.5289,0.0886,-0.7619,0.7561,0
19323262,0.5856,0.2314,-0.5877,0.5081,-0.0227,-0.7152,0.7565,0
19323429,0.5904,0.2359,-0.5974,0.4887,-0.1041,-0.7421,0.1582,0
19323596,0.5949,0.2432,-0.6090,0.4649,0.0583,0.1648,0.0156,0
19323762,0.5967,0.2491,-0.6197,0.4448,0.1084,1.0933,0.9319,0
19323929,0.5948,0.2518,-0.6306,0.4303,-0.0535,0.8207,0.4328,0
19324096,0.5891,0.2518,-0.6388,0.4260,0.2784,0.1478,1.1503,0
19324262,0.5801,0.2518,-0.6475,0.4252,-0.4767,-0.5137,0.1580,0
19324429,0.5699,0.2524,-0.6541,0.4285,0.4454,0.9437,0.8851,0
19324596,0.5571,0.2544,-0.6496,0.4505,1.1175,0.6605,2.3153,0
19324762,0.5390,0.2661,-0.6344,0.4860,-0.1206,-0.4279,-0.1836,0
19324929,0.5127,0.2866,-0.6171,0.5236,-0.3628,-0.0210,-1.4987,0
19325096,0.4849,0.3088,-0.6036,0.5524,0.0952,-1.7012,-0.2173,0
19325262,0.4716,0.3193,-0.5905,0.5719,1.4738,-0.4859,1.3794,0
19325429,0.4658,0.3276,-0.5690,0.5932,0.7649,0.8204,-0.2831,0
19325596,0.4662,0.3364,-0.5480,0.6076,-0.3409,-0.0767,-0.6441,0
19325762,0.4703,0.3401,-0.5315,0.6170,-1.3756,0.9142,-2.4792,0
19325929,0.4768,0.3408,-0.5275,0.6150,-1.3206,1.5998,-3.5016,0
19326096,0.4930,0.3409,-0.5323,0.5978,-0.1359,0.8197,-1.6103,0
19326262,0.5110,0.3385,-0.5314,0.5848,0.8967,0.5966,0.7696,0
19326429,0.5270,0.3339,-0.5248,0.5791,0.7829,-0.0429,0.7252,0
19326596,0.5457,0.3277,-0.5139,0.5750,0.4282,0.1171,-0.1377,0
19326762,0.5639,0.3216,-0.5014,0.5720,0.6553,0.5120,0.9366,0
19326929,0.5784,0.3141,-0.4861,0.5749,0.6185,0.4758,1.1109,0
19327096,0.5940,0.3017,-0.4672,0.5812,0.1558,-0.0413,1.3829,0
19327262,0.6089,0.2878,-0.4450,0.5903,0.5813,-0.1259,1.0998,0
19327429,0.6128,0.2915,-0.4223,0.6010,1.0330,-0.4336,1.6245,0
19327596,0.6120,0.2918,-0.4056,0.6130,-0.1474,-0.0707,-0.2460,0
19327762,0.6147,0.2820,-0.3946,0.6220,-0.3555,0.3256,-0.1872,0
19327929,0.6191,0.2681,-0.3849,0.6298,0.5237,0.9727,0.0704,0
19328096,0.6278,0.2496,-0.3682,0.6388,0.6655,1.6094,-0.5379,0
19328262,0.6429,0.2211,-0.3418,0.6488,0.7707,1.3789,-0.7043,0
19328429,0.6631,0.1826,-0.3059,0.6583,0.7438,0.3574,-1.0052,0
19328596,0.6841,0.1447,-0.2680,0.6627,0.1631,-0.5953,-0.0737,0
19328762,0.7044,0.1123,-0.2369,0.6597,0.1611,-0.8034,0.0326,0
19328929,0.7235,0.0841,-0.2130,0.6513,-0.1249,-0.6200,1.8706,0
19329096,0.7379,0.0688,-0.2011,0.6406,0.8606,-0.1924,0.7208,0
19329262,0.7471,0.0547,-0.1907,0.6345,0.3929,1.1265,1.2656,0
19329429,0.7549,0.0380,-0.1797,0.6295,0.2925,0.6750,-0.4626,0
19329596,0.7658,0.0185,-0.1582,0.6231,0.2482,-0.3642,-1.3626,0
19329762,0.7786,0.0065,-0.1391,0.6119,-0.0024,-0.9107,-0.2008,0
19329929,0.7933,0.0003,-0.1226,0.5964,0.8079,0.2393,-0.3932,0
19330096,0.8069,-0.0043,-0.1006,0.5820,0.6038,1.2863,-0.8619,0
19330262,0.8175,-0.0050,-0.0718,0.5715,-0.7553,0.2419,-0.9833,0
19330429,0.8272,-0.0034,-0.0472,0.5600,-0.9388,-1.4808,0.5655,0
19330596,0.8391,-0.0043,-0.0262,0.5433,-0.8967,-1.0736,-0.6679,0
19330762,0.8513,-0.0025,-0.0100,0.5246,-0.9446,-1.2534,1.3348,0
19330929,0.8598,0.0069,-0.0094,0.5106,0.3815,-0.2110,-0.0790,0
19331096,0.8664,0.0133,-0.0030,0.4991,0.4826,0.8405,-0.8339,0
19331262,0.8740,0.0149,0.0057,0.4856,-0.4431,-0.4976,-0.6813,0
19331429,0.8817,0.0105,0.0145,0.4715,-0.8436,-0.2861,-0.6218,0
19331596,0.8882,0.0027,0.0220,0.4589,-0.5569,0.1371,-0.5457,0
19331762,0.8939,-0.0061,0.0281,0.4474,0.1541,0.4329,-0.3780,0
19331929,0.8991,-0.0157,0.0320,0.4363,0.6822,0.5252,-0.2718,0
19332096,0.9039,-0.0248,0.0333,0.4258,0.1505,0.4571,-0.1872,0
19332262,0.9072,-0.0308,0.0310,0.4183,-0.1805,0.1775,0.1104,0
19332429,0.9057,-0.0404,0.0419,0.4198,-0.0625,-1.1780,1.2444,0
19332596,0.9056,-0.0472,0.0364,0.4199,-1.9670,0.1715,-1.0523,0
19332762,0.9078,-0.0514,0.0285,0.4154,-0.6774,0.6159,-1.2427,0
19332929,0.9113,-0.0467,0.0137,0.4088,0.0946,0.1291,1.4333,0
19333096,0.9151,-0.0366,-0.0047,0.4014,-0.0159,-2.0790,-0.2041,0
19333262,0.9187,-0.0373,-0.0216,0.3927,-0.6825,-1.3436,0.0462,0
19333429,0.9226,-0.0368,-0.0400,0.3818,-0.5789,0.0059,-0.5539,0
19333596,0.9262,-0.0336,-0.0612,0.3705,-0.1983,-1.7029,1.0049,0
19333762,0.9277,-0.0304,-0.0851,0.3621,0.0519,-0.6470,0.5286,0
19333929,0.9290,-0.0242,-0.1088,0.3529,-0.3424,-0.6722,-0.0120,0
19334096,0.9301,-0.0161,-0.1317,0.3426,-0.6136,-0.6161,-0.0928,0
19334262,0.9294,-0.0066,-0.1568,0.3341,-0.7138,-0.3445,0.1159,0
19334429,0.9241,0.0016,-0.1905,0.3313,-1.2031,0.0627,-0.2562,0
19334596,0.9128,0.0052,-0.2350,0.3341,-1.5063,-0.2449,-0.7046,0
19334762,0.8970,-0.0034,-0.2946,0.3295,0.2498,-0.1103,-0.6293,0
19334929,0.8788,-0.0134,-0.3602,0.3127,0.5622,0.9047,-1.0633,0
19335096,0.8575,-0.0207,-0.4233,0.2917,0.6239,1.4528,-0.8923,0
19335262,0.8340,-0.0217,-0.4804,0.2706,-0.0487,0.8139,-1.0928,0
19335429,0.8064,-0.0177,-0.5343,0.2530,-0.3234,0.9183,-0.9487,0
19335596,0.7776,-0.0055,-0.5816,0.2390,0.2188,0.3681,-1.1314,0
19335762,0.7484,0.0030,-0.6231,0.2274,-1.3347,-2.0160,-0.8245,0
19335929,0.7188,0.0108,-0.6627,0.2097,0.3976,0.1855,-1.4197,0
19336096,0.6854,0.0195,-0.7030,0.1888,1.0607,0.1675,-0.0424,0
19336262,0.6507,0.0253,-0.7395,0.1705,0.8081,1.2717,-0.3857,0
19336429,0.6185,0.0269,-0.7696,0.1561,-0.1395,1.5294,-1.1028,0
19336596,0.5920,0.0245,-0.7926,0.1441,0.5498,1.4082,0.1810,0
19336762,0.5785,0.0207,-0.8042,0.1344,0.5567,1.1618,0.9558,0
19336929,0.5741,0.0131,-0.8096,0.1216,1.2878,-0.5298,0.4843,0
19337096,0.5663,0.0027,-0.8174,0.1057,0.2979,0.6511,-0.1874,0
19337262,0.5562,-0.0042,-0.8253,0.0976,1.0952,0.2514,0.8860,0
19337429,0.5480,-0.0097,-0.8313,0.0925,1.1718,0.5161,0.7768,0
19337596,0.5431,-0.0166,-0.8349,0.0878,1.1560,-0.0337,0.5324,0
19337762,0.5378,-0.0198,-0.8386,0.0845,0.0152,0.1070,0.2342,0
19337929,0.5306,-0.0128,-0.8438,0.0787,0.1301,0.7317,-0.7067,0
19338096,0.5133,-0.0008,-0.8553,0.0708,0.3219,0.5280,-0.3441,0
19338262,0.4804,0.0125,-0.8751,0.0575,0.5584,0.9200,-0.7822,0
19338429,0.4335,0.0200,-0.8999,0.0429,0.9607,-0.2492,1.4853,0
19338596,-0.3860,-0.0209,0.9217,-0.0325,0.4515,-0.7149,1.2827,0
19338763,-0.3449,-0.0213,0.9379,-0.0308,0.1273,-0.5955,1.3689,0
19338929,-0.3147,-0.0220,0.9484,-0.0321,-0.1776,0.6082,-0.2643,0
19339096,-0.2935,-0.0210,0.9554,-0.0263,-0.4214,1.3258,-1.1872,0
19339263,-0.2814,-0.0186,0.9593,-0.0141,0.1997,0.5515,0.3922,0
19339429,0.2827,0.0195,-0.9590,-0.0001,0.7185,0.8320,0.6464,0
19339596,0.2920,0.0241,-0.9559,-0.0188,0.7146,0.6413,0.2150,0
19339763,0.2928,0.0440,-0.9540,-0.0459,-1.3782,-0.6013,-0.1858,0
19339929,0.2799,0.0619,-0.9554,-0.0705,-0.1546,-1.8386,0.4948,0
19340096,0.2638,0.0673,-0.9581,-0.0891,-0.4990,-1.0788,0.9965,0
19340263,0.2483,0.0735,-0.9603,-0.1036,0.7417,0.8533,0.4740,0
19340429,0.2298,0.0760,-0.9630,-0.1182,0.8725,0.9954,0.0235,0
19340596,0.2082,0.0747,-0.9670,-0.1265,-0.2415,-0.9677,-1.2721,0
19340763,0.1841,0.0716,-0.9718,-0.1290,0.0182,0.1613,-0.2606,0
19340929,0.1459,0.0694,-0.9784,-0.1292,0.2662,0.8794,-1.2506,0
19341096,0.0918,0.0575,-0.9875,-0.1145,1.3188,1.1946,1.2749,0
19341263,-0.0066,0.0433,-0.9980,-0.0462,-0.3244,3.2067,0.7152,0
19341429,-0.0994,-0.0102,-0.9931,0.0612,-1.4869,-1.1319,-2.6991,0
19341596,-0.1205,-0.0270,-0.9903,0.0630,1.8005,-2.8470,6.4701,0
19341763,-0.1162,-0.0276,-0.9915,0.0523,0.6523,0.0279,-1.1346,0
19341929,-0.1245,-0.0217,-0.9905,0.0537,0.3974,-3.4639,0.4650,0
19342096,-0.1257,-0.0130,-0.9902,0.0593,-1.4195,0.8986,0.6743,0
19342263,0.1324,0.0047,0.9889,-0.0673,-0.6868,0.1569,0.1939,0
19342429,0.1305,-0.0009,0.9884,-0.0777,-0.2671,0.7705,0.3172,0
19342596,0.1250,-0.0061,0.9876,-0.0943,-0.2329,0.0419,0.2151,0
19342763,0.1187,-0.0140,0.9858,-0.1182,0.6227,-0.1033,1.1208,0
19342929,0.1144,-0.0230,0.9831,-0.1414,0.5891,0.8362,-1.3097,0
19343096,0.1107,-0.0301,0.9812,-0.1551,0.4466,1.3621,-0.5111,0
19343263,0.1035,-0.0350,0.9803,-0.1648,0.1958,0.2556,0.0708,0
19343429,0.0970,-0.0392,0.9787,-0.1766,-0.1553,-0.5463,0.6228,0
19343596,0.0910,-0.0434,0.9764,-0.1908,-0.3731,-0.4829,0.2212,0
19343763,0.0913,-0.0447,0.9735,-0.2046,0.1019,0.1896,-0.5467,0
19343929,0.0938,-0.0417,0.9713,-0.2147,-0.0421,-0.2508,-0.4151,0
19344096,0.0964,-0.0366,0.9690,-0.2246,-0.1524,-0.2856,-0.1554,0
19344263,0.0975,-0.0315,0.9684,-0.2274,-0.2250,0.0884,-0.4528,0
19344429,0.0995,-0.0258,0.9682,-0.2279,0.0466,-0.2653,0.2588,0
19344596,0.1009,-0.0208,0.9667,-0.2345,-0.2886,-0.7243,1.2315,0
19344763,0.1012,-0.0196,0.9628,-0.2498,-0.4415,-0.8193,0.8238,0
19344929,0.1016,-0.0195,0.9561,-0.2743,-0.4031,-1.3679,0.3160,0
19345096,0.1003,-0.0201,0.9444,-0.3125,-0.1358,-1.0924,0.4622,0
19345263,0.1025,-0.0218,0.9276,-0.3585,0.1959,-0.1051,0.1984,0
19345429,0.1069,-0.0259,0.9062,-0.4083,0.1466,0.2726,0.0746,0
19345596,0.1171,-0.0325,0.8790,-0.4610,0.3973,0.8477,-0.3227,0
19345763,0.1363,-0.0360,0.8458,-0.5146,-0.5307,0.3398,-0.3531,0
19345929,0.1524,-0.0275,0.7942,-0.5876,0.0000,-0.1315,-0.1174,0
19346096,0.1668,-0.0231,0.7241,-0.6688,0.5247,1.3712,0.1851,0
19346263,0.1653,-0.0267,0.6085,-0.7757,2.2491,3.4077,-2.0178,0
19346429,0.1809,-0.0577,0.4908,-0.8503,-1.5169,-0.5616,1.8781,0
19346596,0.1950,-0.0852,0.4675,-0.8580,-0.8435,0.7620,0.0407,0
19346763,0.1992,-0.1045,0.4615,-0.8581,0.0667,1.3762,-0.9169,0
19346929,0.2030,-0.1215,0.4608,-0.8554,-0.7415,-0.2574,-0.3239,0
19347096,0.2048,-0.1293,0.4590,-0.8548,-0.1249,0.3084,-0.1969,0
19347263,0.2043,-0.1338,0.4551,-0.8563,0.0871,1.6646,-0.0752,0
19347429,0.2004,-0.1407,0.4333,-0.8674,-0.8079,0.2335,-1.7895,0
19347596,0.1943,-0.1435,0.4105,-0.8793,0.6946,1.4052,1.3832,0
19347763,0.1857,-0.1597,0.3907,-0.8873,0.1120,2.0480,0.2967,0
19347929,0.1713,-0.1753,0.3681,-0.8969,-0.7635,1.1913,-0.9685,0
19348096,0.1551,-0.1891,0.3457,-0.9059,0.1728,-0.1000,-0.5029,0
19348263,0.1396,-0.2038,0.3235,-0.9134,-0.1905,0.9329,-0.3891,0
19348429,0.1267,-0.2289,0.2976,-0.9182,1.3759,1.8216,-0.3861,0
19348596,0.1131,-0.2564,0.2382,-0.9299,-0.9457,3.7827,-4.1028,0
19348763,0.1072,-0.2828,0.1909,-0.9339,2.3105,-6.6720,2.2254,0
19348929,0.1054,-0.2949,0.1685,-0.9346,-0.5951,-2.3846,1.4527,0
19349096,0.1064,-0.3035,0.1622,-0.9329,-0.4088,-1.4588,0.9741,0
19349263,0.1052,-0.3038,0.1614,-0.9331,-1.8431,0.4208,1.3154,0
19349429,0.0978,-0.3006,0.1664,-0.9340,0.1498,-0.6378,1.0282,0
19349596,0.0965,-0.2982,0.1691,-0.9344,-0.8492,-0.7245,0.4706,0
19349763,0.0964,-0.2920,0.1713,-0.9360,-0.3935,0.9381,-0.3975,0
19349929,0.0927,-0.2856,0.1642,-0.9396,0.8240,1.0394,-0.0073,0
19350096,0.0901,-0.2884,0.1455,-0.9421,0.2707,-0.4724,-0.6340,0
19350263,0.0924,-0.2971,0.1229,-0.9424,-0.0862,-1.6045,-0.6590,0
19350429,0.0986,-0.3019,0.0996,-0.9430,0.3130,-1.0712,0.8757,0
19350596,0.1001,-0.3096,0.0839,-0.9419,-0.3227,-0.0546,1.1806,0
19350763,0.0988,-0.3160,0.0693,-0.9411,0.4545,-1.9007,0.4423,0
19350929,0.1012,-0.3234,0.0567,-0.9391,0.8978,-1.9504,0.0156,0
19351096,0.1074,-0.3313,0.0450,-0.9363,1.4454,-1.5323,0.8294,0
19351263,0.1138,-0.3435,0.0427,-0.9312,-0.2590,0.4251,0.3330,0
19351429,0.1165,-0.3514,0.0400,-0.9281,-0.3125,1.1263,-0.4095,0
19351596,0.1169,-0.3594,0.0330,-0.9253,0.6252,0.3358,0.0255,0
19351763,0.1167,-0.3657,0.0255,-0.9230,-0.7005,1.4747,-0.4395,0
19351929,0.1181,-0.3678,-0.0007,-0.9224,-0.4105,1.1327,-0.0910,0
19352096,0.1229,-0.3670,-0.0372,-0.9213,0.3689,0.0792,0.0581,0
19352263,0.1304,-0.3664,-0.0817,-0.9176,0.3199,-0.4292,-0.1421,0
19352429,0.1415,-0.3646,-0.1326,-0.9108,-0.3336,-0.2843,-0.9860,0
19352596,0.1559,-0.3611,-0.1822,-0.9011,-0.1397,0.2367,-0.8982,0
19352763,0.1716,-0.3575,-0.2271,-0.8895,-0.0826,0.3264,-0.7754,0
19352929,0.1884,-0.3530,-0.2709,-0.8755,-0.0181,0.3130,-0.6711,0
19353096,0.2061,-0.3489,-0.3135,-0.8588,0.0091,0.0637,-0.4502,0
19353263,0.2233,-0.3445,-0.3525,-0.8409,-0.0254,-0.2740,-0.5412,0
19353429,0.2413,-0.3381,-0.3910,-0.8213,-0.0535,-0.4506,-0.4560,0
19353596,0.2621,-0.3291,-0.4285,-0.7996,-0.0213,-0.0989,-0.0688,0
19353763,0.2813,-0.3194,-0.4598,-0.7794,-0.1668,-0.0811,-0.2828,0
19353929,0.2972,-0.3079,-0.4828,-0.7641,-0.1134,0.2039,-0.2596,0
19354096,0.3093,-0.2977,-0.4980,-0.7535,0.0008,0.4108,-0.0416,0
19354263,0.3199,-0.2886,-0.5100,-0.7445,-0.0755,0.0535,-0.1477,0
19354429,0.3308,-0.2790,-0.5202,-0.7363,-0.0221,-0.2801,-0.1671,0
19354596,0.3428,-0.2685,-0.5291,-0.7283,0.1520,-0.1268,0.0173,0
19354763,0.3542,-0.2598,-0.5350,-0.7217,0.1242,0.7017,0.4604,0
19354929,0.3543,-0.2612,-0.5328,-0.7228,-0.7363,1.5619,-0.1950,0
19355096,0.3435,-0.2682,-0.5167,-0.7370,-0.8432,1.2538,-0.2778,0
19355263,0.3242,-0.2786,-0.4870,-0.7616,-0.0263,0.5273,-0.2498,0
19355430,0.3013,-0.2887,-0.4488,-0.7902,0.3939,-0.3444,-0.0659,0
19355596,0.2809,-0.2963,-0.4067,-0.8172,0.2595,-1.1777,0.1233,0
19355763,0.2686,-0.2976,-0.3744,-0.8361,0.8145,-0.6988,0.4855,0
19355930,0.2590,-0.2975,-0.3492,-0.8500,0.6252,-0.1078,0.5712,0
19356096,0.2457,-0.2979,-0.3146,-0.8671,0.2322,-0.2235,0.4393,0
19356263,0.2269,-0.3011,-0.2681,-0.8865,0.2297,-0.4176,0.0805,0
19356430,0.2066,-0.3068,-0.2157,-0.9037,0.2270,-0.2063,-0.1145,0
19356596,0.1853,-0.3159,-0.1556,-0.9174,0.4439,-0.1989,-0.1604,0
19356763,0.1631,-0.3300,-0.0903,-0.9254,0.6816,-0.5702,-0.6992,0
19356930,0.1402,-0.3563,-0.0251,-0.9235,1.0880,-0.7981,-0.5597,0
19357096,0.1178,-0.3878,0.0451,-0.9131,0.5378,-0.7157,-0.1493,0
19357263,0.1011,-0.4107,0.1086,-0.8996,-1.9165,1.2617,0.5371,0
19357430,0.0928,-0.4076,0.1325,-0.8987,-1.2529,0.7528,-0.0215,0
19357596,0.0869,-0.4089,0.1529,-0.8955,0.4682,-0.1865,0.0119,0
19357763,0.0800,-0.4097,0.1774,-0.8912,0.3952,-0.2061,-0.5366,0
19357930,0.0707,-0.4067,0.2029,-0.8880,0.3560,0.4812,-0.6778,0
19358096,0.0484,-0.4049,0.2501,-0.8781,5.7605,-2.6227,3.1350,0
19358263,0.0171,-0.4085,0.3399,-0.8469,-0.8263,-2.1162,-2.5422,0
19358430,-0.0078,-0.4058,0.3921,-0.8255,-3.8034,3.8408,-1.7687,0
19358596,-0.0146,-0.4031,0.4047,-0.8207,-3.0181,3.8933,0.7652,0
19358763,-0.0126,-0.4032,0.4033,-0.8214,0.0636,1.0721,0.6028,0
19358930,-0.0137,-0.4039,0.3999,-0.8226,0.2895,1.6099,0.3273,0
19359096,-0.0114,-0.4084,0.3911,-0.8247,-0.4247,-1.2091,1.3056,0
19359263,-0.0016,-0.4092,0.4159,-0.8122,-0.0235,-1.9364,-0.9093,0
19359430,0.0062,-0.4031,0.4404,-0.8022,-1.3022,-1.4729,-0.6746,0
19359596,0.0115,-0.3962,0.4730,-0.7869,0.2899,-0.3441,-0.3727,0
19359763,0.0163,-0.3888,0.4963,-0.7761,-0.1822,1.4475,1.2247,0
19359930,0.0202,-0.3871,0.5172,-0.7630,0.9750,-0.0686,-0.1909,0
19360096,0.0194,-0.3879,0.5341,-0.7509,0.1339,0.6111,0.4742,0
19360263,0.0161,-0.3876,0.5397,-0.7471,0.1334,-0.1216,-0.1177,0
19360430,0.0127,-0.3892,0.5445,-0.7429,0.0581,-0.0281,0.2342,0
19360596,0.0129,-0.3930,0.5558,-0.7324,0.3758,-1.6526,-0.8749,0
19360763,0.0115,-0.3964,0.5838,-0.7085,-0.3013,0.0423,-0.1545,0
19360930,0.0100,-0.3986,0.6006,-0.6931,-0.2627,1.1325,0.5022,0
19361096,0.0066,-0.3994,0.6117,-0.6829,0.0003,0.7192,-0.2432,0
19361263,0.0007,-0.4029,0.6328,-0.6612,-0.3830,-0.9796,-1.6740,0
19361430,-0.0113,-0.4093,0.6630,-0.6267,-0.7664,0.0813,-0.7229,0
19361596,-0.0184,-0.4108,0.6812,-0.6057,0.4628,1.8304,1.7027,0
19361763,-0.0214,-0.4111,0.6864,-0.5995,0.1945,0.5774,0.3432,0
19361930,-0.0240,-0.4110,0.6907,-0.5945,-0.1975,0.0415,-0.3811,0
19362096,-0.0261,-0.4111,0.6935,-0.5911,0.0412,0.1081,0.1972,0
19362263,-0.0309,-0.4123,0.7001,-0.5821,-0.8107,-0.7393,-1.5707,0
19362430,-0.0452,-0.4161,0.7222,-0.5507,-0.3750,-0.1495,-1.2609,0
19362596,-0.0632,-0.4204,0.7468,-0.5114,-0.4307,1.0828,-0.6498,0
19362763,-0.0797,-0.4219,0.7673,-0.4764,0.0433,0.3629,0.2819,0
19362930,-0.0958,-0.4212,0.7825,-0.4485,-0.7386,-0.4652,0.4360,0
19363096,-0.1101,-0.4182,0.7940,-0.4273,-0.6992,-0.0112,-0.8284,0
19363263,-0.1193,-0.4125,0.8064,-0.4066,-0.0686,-0.3837,-0.4794,0
19363430,-0.1283,-0.4055,0.8183,-0.3866,1.6013,0.4797,2.8349,0
19363596,-0.1391,-0.3964,0.8270,-0.3737,-0.0681,-0.1301,1.5813,0
19363763,-0.1529,-0.3819,0.8370,-0.3608,-0.4572,-0.2816,0.2067,0
19363930,-0.1664,-0.3663,0.8471,-0.3473,-0.0952,-0.3080,0.4353,0
19364096,-0.1771,-0.3540,0.8543,-0.3368,1.0240,-0.2629,0.4895,0
19364263,-0.1896,-0.3410,0.8633,-0.3201,0.5371,-1.1334,-0.7942,0
19364430,-0.2039,-0.3290,0.8727,-0.2978,0.7196,-0.1533,0.1346,0
19364596,-0.2123,-0.3239,0.8777,-0.2823,-0.2355,0.6105,0.3625,0
19364763,-0.2231,-0.3159,0.8837,-0.2637,-0.9335,-0.4072,-0.7634,0
19364930,-0.2370,-0.3042,0.8912,-0.2388,-0.1922,0.2152,0.0774,0
19365096,-0.2445,-0.2989,0.8942,-0.2266,0.1576,1.3385,0.6754,0
19365263,-0.2509,-0.2966,0.8959,-0.2156,-0.9493,-0.4345,-1.3879,0
19365430,-0.2606,-0.2912,0.8995,-0.1954,-0.3798,-0.3177,-0.6237,0
19365596,-0.2774,-0.2822,0.9031,-0.1668,0.0249,0.0715,-0.1502,0
19365763,-0.2925,-0.2699,0.9079,-0.1316,-0.8524,-0.4985,-0.5291,0
19365930,0.3116,0.2521,-0.9125,0.0812,-0.8262,0.2560,-0.0876,0
19366096,0.3356,0.2235,-0.9151,-0.0067,-1.0305,2.0286,-1.0118,0
19366263,0.3573,0.1954,-0.9057,-0.1180,1.5907,-0.0192,1.5269,0
19366430,0.3684,0.1813,-0.8980,-0.1580,1.5906,-0.9908,2.7630,0
19366596,0.3692,0.1687,-0.8950,-0.1848,0.2974,0.2974,0.8028,0
19366763,0.3699,0.1596,-0.8925,-0.2028,0.5501,0.3747,0.6540,0
19366930,0.3701,0.1542,-0.8913,-0.2115,-0.1980,-0.1197,-0.3628,0
19367096,0.3686,0.1521,-0.8917,-0.2141,-0.0640,-1.5528,-0.2440,0
19367263,0.3657,0.1281,-0.8853,-0.2572,0.3505,1.1848,0.4506,0
19367430,0.3630,0.1182,-0.8772,-0.2913,0.4879,-1.2189,0.4291,0
19367596,0.3554,0.1209,-0.8755,-0.3043,-0.0529,-0.0145,-0.1409,0
19367763,0.3475,0.1245,-0.8712,-0.3236,0.0815,0.1685,0.4296,0
19367930,0.3413,0.1257,-0.8654,-0.3447,-0.6059,0.6029,-0.1456,0
19368096,0.3550,0.1188,-0.8525,-0.3647,-0.0256,0.0495,1.8225,0
19368263,0.3593,0.1091,-0.8435,-0.3840,-0.3571,1.2399,-1.6182,0
19368430,0.3647,0.0962,-0.8289,-0.4131,-0.4985,-0.8497,-0.5175,0
19368596,0.3655,0.0843,-0.8153,-0.4412,0.0533,-1.2152,-0.2967,0
19368763,0.3618,0.0781,-0.8062,-0.4617,0.5762,-0.6708,0.8402,0
19368930,0.3563,0.0756,-0.8026,-0.4724,0.6257,-0.3965,0.7806,0
19369096,0.3501,0.0734,-0.8019,-0.4784,0.4626,0.2954,0.1313,0
19369263,0.3424,0.0699,-0.8051,-0.4793,0.5174,-0.1369,0.5462,0
19369430,0.3349,0.0617,-0.8145,-0.4698,1.0564,-0.5260,2.7062,0
19369596,0.3282,0.0499,-0.8335,-0.4417,1.3152,-1.6144,2.0346,0
19369763,0.3227,0.0437,-0.8471,-0.4199,-0.5357,1.0941,-1.3281,0
19369930,0.3207,0.0423,-0.8493,-0.4172,-0.2372,1.7258,-1.7098,0
19370096,0.3193,0.0436,-0.8479,-0.4209,-0.1765,2.3322,-1.2625,0
19370263,0.3205,0.0454,-0.8395,-0.4364,-0.0119,1.8509,-1.0819,0
19370430,0.3228,0.0502,-0.8239,-0.4631,-0.1498,1.7524,-1.4322,0
19370596,0.3268,0.0600,-0.7962,-0.5056,-0.1824,0.6549,-1.0968,0
19370763,0.3331,0.0713,-0.7572,-0.5573,-0.7102,0.1102,-1.2148,0
19370930,0.3411,0.0790,-0.7161,-0.6038,0.2012,-1.5974,1.2211,0
19371096,0.3482,0.0843,-0.6818,-0.6378,-1.5222,-0.5501,0.6873,0
19371263,0.3447,0.0614,-0.6400,-0.6839,-2.0980,-0.0816,1.1648,0
19371430,0.3373,0.0342,-0.5883,-0.7341,2.1198,-0.7908,1.1627,0
19371596,0.3402,0.0298,-0.5561,-0.7577,-0.0361,0.3335,0.0770,0
19371763,0.3405,0.0234,-0.5367,-0.7717,1.1535,-0.3726,-0.4309,0
19371930,0.3399,0.0247,-0.5285,-0.7775,0.8718,-0.7549,-0.8883,0
19372097,0.3377,0.0291,-0.5327,-0.7755,0.3483,-0.8579,0.2690,0
19372263,0.3342,0.0348,-0.5416,-0.7706,-0.2607,-0.1466,-0.0144,0
19372430,0.3267,0.0363,-0.5490,-0.7685,-0.4955,0.7107,-0.3756,0
19372597,0.3227,0.0365,-0.5545,-0.7662,0.4670,0.6228,-0.4221,0
19372763,0.3180,0.0357,-0.5623,-0.7626,0.3483,0.6053,-0.8062,0
19372930,0.3086,0.0367,-0.5753,-0.7566,0.4360,-0.1725,-0.8502,0
19373097,0.3003,0.0377,-0.5873,-0.7506,-0.1052,0.0505,0.0043,0
19373263,0.2953,0.0384,-0.5962,-0.7456,-0.2414,-0.0424,0.1669,0
19373430,0.2943,0.0390,-0.5998,-0.7431,-0.2053,0.3124,0.0651,0
19373597,0.2957,0.0393,-0.5991,-0.7431,0.1158,0.3019,0.0561,0
19373763,0.2983,0.0386,-0.5955,-0.7449,0.3115,0.4026,0.5088,0
19373930,0.3027,0.0370,-0.5894,-0.7480,0.2886,-0.3659,0.8506,0
19374097,0.3093,0.0353,-0.5810,-0.7520,0.3460,-0.8410,1.2483,0
19374263,0.3179,0.0320,-0.5648,-0.7609,-0.2991,0.7590,1.7948,0
19374430,0.3238,0.0144,-0.5214,-0.7894,-1.9303,3.3452,2.7970,0
19374597,0.3141,-0.0207,-0.4567,-0.8320,4.5076,-0.9625,2.0587,0
19374763,0.2818,-0.0543,-0.4233,-0.8594,-0.5441,-3.5901,-4.0937,0
19374930,0.2762,-0.0574,-0.4089,-0.8679,-1.5043,-0.0066,-0.1259,0
19375097,0.2690,-0.0619,-0.3984,-0.8747,-1.1028,6.7517,-3.9336,0
19375263,0.2458,-0.0749,-0.3718,-0.8921,2.4107,-0.5499,0.2386,0
19375430,0.2314,-0.0941,-0.3504,-0.9027,1.7620,-1.3691,-0.3088,0
19375597,0.2203,-0.1030,-0.3437,-0.9070,0.2345,-0.8271,-0.6164,0
19375763,0.2178,-0.1084,-0.3470,-0.9058,1.5707,-1.3147,0.9464,0
19375930,0.2424,-0.1030,-0.3414,-0.9023,-3.9470,-1.0295,2.4761,0
19376097,0.2616,-0.1008,-0.3373,-0.8987,-3.2174,-0.8090,-1.4348,0
19376263,0.2709,-0.1035,-0.3327,-0.8973,1.0581,1.4024,0.9340,0
19376430,0.2723,-0.1116,-0.3278,-0.8977,2.5449,0.1403,0.4199,0
19376597,0.2715,-0.1209,-0.3212,-0.8992,1.2724,-0.7465,0.0899,0
19376763,0.2674,-0.1289,-0.3153,-0.9014,0.7802,-0.8724,1.4686,0
19376930,0.2622,-0.1356,-0.3089,-0.9041,1.4916,0.1282,2.0954,0
19377097,0.2596,-0.1396,-0.3066,-0.9050,0.8062,-0.5499,2.0540,0
19377263,0.2609,-0.1425,-0.3127,-0.9021,2.0007,-2.9740,0.6936,0
19377430,0.2621,-0.1520,-0.3106,-0.9010,1.6381,0.5426,1.0515,0
19377597,0.2648,-0.1624,-0.3015,-0.9015,2.3079,1.5844,1.1335,0
19377763,0.2664,-0.1738,-0.2849,-0.9043,1.0273,1.1717,0.0292,0
19377930,0.2646,-0.1838,-0.2639,-0.9091,1.6440,0.6720,0.3235,0
19378097,0.2602,-0.1937,-0.2415,-0.9146,1.1106,0.6801,-0.5790,0
19378263,0.2546,-0.2086,-0.2230,-0.9176,1.2112,-0.1267,0.4917,0
19378430,0.2487,-0.2281,-0.2023,-0.9194,2.1252,-0.2100,2.5407,0
19378597,0.2431,-0.2533,-0.1827,-0.9184,1.0764,-1.5217,1.9036,0
19378763,0.2398,-0.2806,-0.1724,-0.9133,1.4483,-1.0872,0.5918,0
19378930,0.2377,-0.3026,-0.1605,-0.9089,0.0521,-0.4444,-1.5755,0
19379097,0.2343,-0.3229,-0.1497,-0.9047,0.1950,0.6296,-2.0603,0
19379263,0.2277,-0.3381,-0.1393,-0.9025,-0.1314,1.5188,-2.3627,0
19379430,0.2189,-0.3456,-0.1286,-0.9034,0.1499,0.2403,-1.3336,0
19379597,0.2110,-0.3526,-0.1194,-0.9038,0.3649,-0.4332,-0.3242,0
19379763,0.2032,-0.3604,-0.1123,-0.9034,0.6571,0.2940,-0.2847,0
19379930,0.1951,-0.3709,-0.1087,-0.9014,1.1782,0.9293,-0.8251,0
19380097,0.1866,-0.3850,-0.1068,-0.8975,1.8382,0.6346,0.7081,0
19380263,0.1786,-0.3985,-0.1036,-0.8936,1.2885,-0.1254,0.6297,0
19380430,0.1717,-0.4104,-0.0989,-0.8901,1.2486,0.3389,0.1516,0
19380597,0.1642,-0.4211,-0.0943,-0.8870,0.6144,0.6427,-0.4767,0
19380763,0.1550,-0.4277,-0.0890,-0.8861,1.4317,2.4318,-1.6310,0
19380930,0.1438,-0.4313,-0.0841,-0.8867,0.6784,2.3141,-2.5081,0
19381097,0.1311,-0.4338,-0.0799,-0.8878,1.0399,1.4333,-1.2776,0
19381263,0.1189,-0.4376,-0.0767,-0.8880,0.0032,0.6492,-1.4296,0
19381430,0.1068,-0.4381,-0.0739,-0.8895,-0.3795,1.8374,-2.3510,0
19381597,0.0919,-0.4358,-0.0705,-0.8925,0.7521,1.9968,-1.5412,0
19381763,0.0783,-0.4371,-0.0680,-0.8934,0.2909,0.5867,-0.0690,0
19381930,0.0669,-0.4372,-0.0642,-0.8946,-0.1107,0.3651,-0.0758,0
19382097,0.0590,-0.4342,-0.0601,-0.8969,-1.3604,-0.2453,-0.6751,0
19382263,0.0544,-0.4303,-0.0570,-0.8992,-1.4955,-0.5488,0.2543,0
19382430,0.0487,-0.4256,-0.0519,-0.9021,0.2993,0.4851,0.5331,0
19382597,0.0423,-0.4220,-0.0456,-0.9045,-0.2903,-0.1547,-0.1464,0
19382763,0.0360,-0.4179,-0.0399,-0.9069,-0.0639,-0.0560,-0.6374,0
19382930,0.0276,-0.4165,-0.0369,-0.9079,-0.0587,0.3134,-1.8000,0
19383097,-0.0159,0.4174,0.0369,0.9078,1.1101,0.6935,-2.4155,0
19383263,-0.0012,0.4166,0.0371,0.9083,1.3142,-0.6411,-1.7532,0
19383430,0.0085,0.4226,0.0395,0.9054,-2.2247,-3.6525,0.3130,0
19383597,0.0071,0.4387,0.0487,0.8973,-5.3255,-3.2816,-1.8563,0
19383763,-0.0013,0.4544,0.0625,0.8886,-4.9233,-1.6453,-2.8497,0
19383930,-0.0135,0.4660,0.0799,0.8811,-5.4270,-1.3266,-4.1736,0
19384097,-0.0285,0.4724,0.1006,0.8752,-3.5963,-0.4389,-3.5645,0
19384263,-0.0417,0.4752,0.1202,0.8706,-2.3399,-0.5526,-1.0725,0
19384430,-0.0494,0.4697,0.1304,0.8717,-0.1927,0.3495,1.4819,0
19384597,-0.0496,0.4514,0.1291,0.8815,-2.7482,-0.1662,0.4918,0
19384763,-0.0475,0.4304,0.1264,0.8925,-4.3742,-1.0990,-1.4955,0
19384930,-0.0448,0.4134,0.1280,0.9004,-1.0877,0.2090,-2.1585,0
19385097,-0.0395,0.4033,0.1328,0.9045,0.3264,-0.8442,0.9023,0
19385263,-0.0381,0.4025,0.1388,0.9040,-1.2135,-2.5436,4.7859,0
19385430,-0.0411,0.4088,0.1443,0.9002,-0.7218,-2.0727,5.3799,0
19385597,-0.0456,0.4165,0.1460,0.8962,0.4574,-1.5101,4.3003,0
19385763,-0.0525,0.4192,0.1422,0.8951,-0.3375,-0.6788,1.1337,0
19385930,-0.0632,0.4216,0.1413,0.8935,-1.8847,-0.5839,-0.8975,0
19386097,0.0805,-0.4243,-0.1455,-0.8901,-0.8327,0.1883,-1.2058,0
19386263,0.0993,-0.4358,-0.1553,-0.8810,3.7370,3.1652,-1.0773,0
19386430,0.1092,-0.4502,-0.1610,-0.8715,3.3852,3.3081,-0.5805,0
19386597,0.1163,-0.4571,-0.1614,-0.8669,-1.2727,0.0312,0.1717,0
19386763,0.1236,-0.4588,-0.1602,-0.8652,-1.2999,-0.6243,1.6482,0
19386930,0.1316,-0.4566,-0.1569,-0.8658,-2.1742,-0.7709,0.6750,0
19387097,0.1441,-0.4528,-0.1560,-0.8659,-2.1377,-0.1751,-1.2490,0
19387263,0.1560,-0.4545,-0.1602,-0.8622,0.2682,1.4764,-0.6130,0
19387430,0.1578,-0.4677,-0.1552,-0.8557,-1.6765,-2.0908,3.2124,0
19387597,0.1530,-0.4813,-0.1276,-0.8536,1.6093,-1.2737,3.4156,0
19387763,0.1465,-0.4903,-0.0966,-0.8537,-0.2954,0.2658,-0.3035,0
19387930,0.1408,-0.4943,-0.0758,-0.8545,-1.6677,0.5347,-1.3590,0
19388097,0.1367,-0.4967,-0.0661,-0.8545,-0.5256,0.8325,0.1726,0
19388263,0.1309,-0.4960,-0.0536,-0.8567,0.3592,1.6395,2.5025,0
19388430,0.1199,-0.5313,-0.0455,-0.8374,-0.0085,3.2504,-0.8202,0
19388597,0.1085,-0.5512,-0.0229,-0.8269,-2.0854,2.0935,1.0141,0
19388764,0.0952,-0.5731,0.0062,-0.8139,0.8957,2.5155,3.0372,0
19388930,0.0795,-0.6000,0.0373,-0.7952,0.6238,1.8811,1.9512,0
19389097,0.0644,-0.6185,0.0651,-0.7804,1.1259,0.8001,1.8134,0
19389264,0.0490,-0.6268,0.0843,-0.7730,3.1792,-0.9052,2.6313,0
19389430,0.0387,-0.6292,0.0845,-0.7717,1.2810,-1.3372,0.5912,0
19389597,0.0337,-0.6239,0.0672,-0.7779,0.5607,-1.9569,-0.5596,0
19389764,0.0321,-0.6129,0.0465,-0.7881,2.0406,-5.2766,-1.3621,0
19389930,0.0332,-0.5939,0.0290,-0.8033,3.5124,-6.3869,-0.9036,0
19390097,0.0397,-0.5810,0.0189,-0.8127,2.3400,-6.3038,-1.0876,0
19390264,0.0549,-0.5798,0.0079,-0.8129,3.9514,-6.3626,-1.9307,0
19390430,0.0718,-0.5696,-0.0065,-0.8188,3.8436,-7.5076,-4.3427,0
19390597,0.0942,-0.5606,-0.0190,-0.8225,0.8129,-4.8288,-5.8639,0
19390764,0.1219,-0.5399,-0.0294,-0.8323,1.1277,-4.4690,-5.7581,0
19390930,0.1474,-0.5160,-0.0363,-0.8430,2.3904,-1.2879,-2.7200,0
19391097,0.1498,-0.4775,-0.0424,-0.8647,0.6981,0.9603,-3.0372,0
19391264,0.1441,-0.4439,-0.0419,-0.8834,-1.2925,0.2401,-1.1915,0
19391430,0.1437,-0.4249,-0.0367,-0.8930,-3.0181,0.3217,-2.5352,0
19391597,0.1474,-0.4040,-0.0395,-0.9019,-1.9184,3.7171,-1.3317,0
19391764,0.1400,-0.3770,-0.0379,-0.9148,-2.2353,2.3299,0.9627,0
19391930,0.1404,-0.3496,-0.0334,-0.9257,-1.6518,2.9164,0.1375,0
19392097,0.1471,-0.3321,-0.0283,-0.9313,-1.5146,2.9355,1.0653,0
19392264,0.1593,-0.3252,-0.0248,-0.9318,-1.0566,2.9853,1.4614,0
19392430,0.1710,-0.3192,-0.0211,-0.9319,-1.2951,2.7876,1.0057,0
19392597,0.1827,-0.3146,-0.0169,-0.9313,-0.0025,2.3066,0.4265,0
19392764,0.1911,-0.3100,-0.0130,-0.9312,2.3571,2.3762,0.4200,0
19392930,0.1980,-0.3086,-0.0106,-0.9303,0.8107,2.6364,0.9761,0
19393097,0.2055,-0.3068,-0.0070,-0.9293,-1.0035,2.3481,0.2268,0
19393264,0.2095,-0.3024,0.0001,-0.9299,-2.5568,1.2740,0.8823,0
19393430,0.2088,-0.2933,0.0131,-0.9328,-2.0058,1.8252,0.7347,0
19393597,0.2031,-0.2857,0.0275,-0.9361,-1.7889,5.5915,1.1658,0
19393764,0.2060,-0.2896,0.0354,-0.9340,-4.9669,3.5291,5.4780,0
19393930,0.2035,-0.2940,0.0417,-0.9330,-2.8906,1.7139,1.9017,0
19394097,0.2069,-0.2982,0.0506,-0.9304,-0.8123,1.1711,-0.0190,0
19394264,0.2080,-0.2993,0.0639,-0.9290,-1.3914,0.4466,-0.2340,0
19394430,0.2088,-0.2979,0.0759,-0.9284,-2.0933,0.3321,-0.9989,0
19394597,0.2067,-0.2940,0.0881,-0.9290,-1.6032,0.0814,-1.6542,0
19394764,0.2022,-0.2872,0.1009,-0.9308,-0.4442,-0.0855,-1.4759,0
19394930,0.1967,-0.2748,0.1122,-0.9344,-0.4278,0.2429,-1.1699,0
19395097,0.1888,-0.2600,0.1221,-0.9391,-0.9403,0.2707,-0.5086,0
19395264,0.1781,-0.2470,0.1316,-0.9434,-0.9227,0.3300,0.0139,0
19395430,0.1666,-0.2340,0.1405,-0.9475,-1.1667,0.6683,-0.4220,0
19395597,0.1512,-0.2184,0.1503,-0.9523,-1.5025,0.0440,-0.5485,0
19395764,0.1314,-0.2150,0.1561,-0.9551,0.3705,0.1290,-0.2093,0
19395930,0.1130,-0.2252,0.1581,-0.9547,0.4031,0.2459,0.5397,0
19396097,0.0974,-0.2390,0.1597,-0.9528,-0.5636,0.0023,-0.5271,0
19396264,0.0846,-0.2539,0.1624,-0.9497,0.4097,-0.0966,-0.7018,0
19396430,0.0734,-0.2679,0.1643,-0.9465,-0.1505,0.0222,0.2363,0
19396597,0.0616,-0.2776,0.1666,-0.9441,-1.8230,0.1141,-0.4234,0
19396764,0.0487,-0.2767,0.1685,-0.9448,1.5294,0.2357,1.3301,0
19396930,0.0400,-0.2703,0.1688,-0.9470,2.7037,0.4309,1.9858,0
19397097,0.0353,-0.2676,0.1668,-0.9483,1.7690,0.1359,1.1257,0
19397264,0.0330,-0.2699,0.1635,-0.9483,0.5123,0.3316,0.4229,0
19397430,0.0302,-0.2706,0.1601,-0.9488,-0.7261,0.7868,-0.0846,0
19397597,0.0266,-0.2691,0.1576,-0.9498,-0.4440,0.3246,0.4316,0
19397764,0.0232,-0.2628,0.1565,-0.9518,-1.1583,-0.2165,-0.1620,0
19397930,0.0207,-0.2489,0.1556,-0.9557,-0.3324,-0.3252,-1.1025,0
19398097,0.0196,-0.2317,0.1552,-0.9601,-0.8391,-0.6105,-0.5179,0
19398264,0.0182,-0.2076,0.1560,-0.9655,-1.7959,-0.3007,-1.1249,0
19398430,0.0146,-0.1759,0.1582,-0.9715,-0.5826,0.1757,-0.5665,0
19398597,0.0045,-0.1419,0.1604,-0.9768,1.7279,1.3147,-1.0309,0
19398764,-0.0115,-0.0952,0.1615,-0.9822,1.2944,1.4687,-2.6461,0
19398930,0.0354,0.0081,-0.1554,0.9872,0.4859,2.4350,-6.4639,0
19399097,0.0564,-0.0901,-0.1311,0.9857,-2.3759,-2.7304,10.5710,0
19399264,0.0572,-0.0961,-0.1198,0.9865,4.3776,-0.9553,2.0927,0
19399430,0.0592,-0.1009,-0.1095,0.9871,0.6303,0.1512,-0.0461,0
19399597,0.0618,-0.1056,-0.1015,0.9873,0.8125,0.2606,0.1412,0
19399764,0.0637,-0.1056,-0.0951,0.9878,0.9593,0.1013,0.6090,0
19399930,0.0657,-0.1054,-0.0903,0.9881,-0.6104,0.0532,-0.4026,0
19400097,0.0672,-0.1053,-0.0868,0.9884,-1.2751,-0.0466,-0.6114,0
19400264,0.0678,-0.1049,-0.0843,0.9886,-0.2407,0.0895,-0.1504,0
19400430,0.0687,-0.1036,-0.0828,0.9888,0.5082,0.1240,0.1964,0
19400597,0.0705,-0.1050,-0.0822,0.9886,0.6375,0.6325,0.2164,0
19400764,0.0740,-0.1080,-0.0820,0.9880,-0.0210,0.3466,-0.0663,0
19400930,0.0780,-0.1106,-0.0815,0.9874,-0.4269,-0.0776,-0.4150,0
19401097,0.0814,-0.1120,-0.0804,0.9871,0.1282,0.1396,-0.1258,0
19401264,0.0823,-0.1139,-0.0783,0.9870,0.0544,0.0985,-0.1352,0
19401430,0.0821,-0.1161,-0.0747,0.9870,-1.0686,-0.1655,-0.5163,0
19401597,0.0819,-0.1173,-0.0706,0.9872,-0.8183,-0.2802,-0.3653,0
19401764,0.0813,-0.1162,-0.0660,0.9877,-0.0823,-0.1628,-0.1628,0
19401930,0.0793,-0.1153,-0.0622,0.9882,0.3765,0.0657,-0.1526,0
19402097,0.0775,-0.1159,-0.0579,0.9885,0.4473,0.1728,-0.1548,0
19402264,0.0759,-0.1166,-0.0530,0.9889,-0.1744,0.1029,-0.1685,0
19402430,0.0749,-0.1168,-0.0472,0.9892,-0.1934,-0.0308,-0.2398,0
19402597,0.0742,-0.1161,-0.0422,0.9896,-0.0472,-0.1358,0.0549,0
19402764,0.0740,-0.1166,-0.0384,0.9897,0.0517,0.0757,-0.1450,0
19402930,0.0736,-0.1185,-0.0333,0.9897,-0.1354,0.1518,0.0416,0
19403097,0.0729,-0.1190,-0.0278,0.9898,-0.0956,0.0521,-0.1666,0
19403264,0.0724,-0.1184,-0.0230,0.9901,0.2084,-0.2059,-0.2888,0
19403430,0.0715,-0.1169,-0.0191,0.9904,-0.0497,-0.2338,-0.3122,0
19403597,0.0689,-0.1145,-0.0151,0.9909,-0.0321,-0.1508,-0.3769,0
19403764,0.0651,-0.1116,-0.0110,0.9916,0.1801,0.2514,0.0797,0
19403930,0.0616,-0.1090,-0.0058,0.9921,0.0880,0.4995,0.1448,0
19404097,0.0576,-0.1073,-0.0011,0.9926,-0.0725,0.2552,-0.3829,0
19404264,0.0534,-0.1042,0.0063,0.9931,-0.0601,0.2227,0.1275,0
19404430,0.0482,-0.0990,0.0136,0.9938,-0.0061,-0.1051,-0.2691,0
19404597,0.0420,-0.0945,0.0228,0.9944,-0.5363,0.0873,-0.2138,0
19404764,0.0333,-0.0899,0.0307,0.9949,-0.2925,0.1051,-0.4185,0
19404930,0.0242,-0.0855,0.0403,0.9952,0.5401,0.2798,0.1621,0
19405097,0.0131,-0.0795,0.0528,0.9953,-1.0923,-0.0031,0.4202,0
19405264,0.0090,0.0747,-0.0624,-0.9952,-1.5218,-0.8232,-0.0842,0
19405431,0.0367,0.0705,-0.0673,-0.9946,-0.3617,-0.2713,-0.2170,0
19405597,0.0653,0.0649,-0.0728,-0.9931,0.6962,-0.2954,0.4360,0
19405764,0.0943,0.0603,-0.0757,-0.9908,0.8641,-0.2410,-0.1590,0
19405931,0.1206,0.0596,-0.0774,-0.9879,1.0461,-0.2761,-1.0550,0
19406097,0.1373,0.0650,-0.0776,-0.9853,1.3210,0.7831,-0.1951,0
19406264,0.1529,0.0716,-0.0787,-0.9825,-1.3488,0.2713,0.2925,0
19406431,0.1726,0.0745,-0.0807,-0.9788,0.7307,0.0582,0.7330,0
19406597,0.1928,0.0790,-0.0840,-0.9744,-0.7341,-0.5371,-0.5884,0
19406764,0.2202,0.0904,-0.0838,-0.9676,-0.6732,-0.2961,0.9572,0
19406931,0.2584,0.1103,-0.0647,-0.9575,-0.6225,-0.8281,1.0575,0
19407097,0.2975,0.1110,-0.0518,-0.9468,0.6334,-0.2133,-0.9248,0
19407264,0.3310,0.1068,-0.0401,-0.9367,0.6997,0.2078,0.5975,0
19407431,0.3599,0.1037,-0.0279,-0.9268,0.3951,0.5721,-0.5167,0
19407597,0.3835,0.1013,-0.0193,-0.9178,0.7048,-0.2089,-0.2739,0
19407764,0.4011,0.1002,-0.0106,-0.9105,0.3143,1.3320,-0.6015,0
19407931,0.4099,0.0982,-0.0083,-0.9068,-1.1748,-0.9047,-0.1012,0
19408097,0.4215,0.1020,-0.0056,-0.9011,-0.2216,0.4068,-0.6225,0
19408264,0.4333,0.1071,-0.0038,-0.8949,0.1107,0.3884,-0.2214,0
19408431,0.4410,0.1075,-0.0019,-0.8910,1.0493,0.3653,0.1328,0
19408597,0.4586,0.1010,0.0053,-0.8829,-0.3204,-0.4241,0.2283,0
19408764,0.4766,0.0949,0.0127,-0.8739,-0.9837,0.7500,-0.1983,0
19408931,0.4898,0.0867,0.0157,-0.8674,0.2185,0.2429,-0.7064,0
19409097,0.5109,0.0677,-0.0016,-0.8569,0.6427,-0.1801,-0.1037,0
19409264,0.5312,0.0540,-0.0100,-0.8455,-0.0180,-0.5117,-0.0455,0
19409431,0.5495,0.0480,-0.0152,-0.8340,0.1159,-0.1573,-0.0872,0
19409597,0.5688,0.0417,-0.0206,-0.8212,0.2902,-0.2254,0.1585,0
19409764,0.5897,0.0342,-0.0254,-0.8065,0.6038,-0.2108,0.2486,0
19409931,0.6058,0.0312,-0.0304,-0.7944,-1.2592,-0.1201,-0.7663,0
19410097,0.6140,0.0356,-0.0364,-0.7876,-0.0946,-0.0084,-0.8000,0
19410264,0.6196,0.0393,-0.0428,-0.7828,-0.1051,0.1024,0.5108,0
19410431,0.6275,0.0398,-0.0493,-0.7761,0.5751,0.1062,0.1654,0
19410597,0.6417,0.0356,-0.0629,-0.7635,0.2249,-0.4224,-0.0100,0
19410764,0.6589,0.0296,-0.0789,-0.7475,0.1923,-0.4845,-0.7804,0
19410931,0.6773,0.0227,-0.0917,-0.7296,0.2913,0.2657,-0.0599,0
19411097,0.6949,0.0162,-0.1012,-0.7118,-0.0866,0.7585,-0.1725,0
19411264,0.7080,0.0087,-0.1063,-0.6981,-0.2159,0.2597,0.2495,0
19411431,0.7216,-0.0028,-0.1119,-0.6832,0.0314,-0.2122,0.6600,0
19411597,0.7364,-0.0141,-0.1166,-0.6663,0.2420,0.0432,-0.6082,0
19411764,0.7516,-0.0252,-0.1205,-0.6481,0.2145,0.1725,-0.1454,0
19411931,0.7655,-0.0361,-0.1242,-0.6303,-0.0874,0.1266,-0.0241,0
19412097,0.7772,-0.0453,-0.1265,-0.6148,0.0763,0.2309,-0.3234,0
19412264,0.7866,-0.0527,-0.1285,-0.6017,-0.1610,0.0990,-0.0944,0
19412431,0.7951,-0.0601,-0.1294,-0.5894,-0.3263,0.0391,0.0055,0
19412597,0.8046,-0.0681,-0.1304,-0.5753,0.2006,0.1598,-0.1318,0
19412764,0.8121,-0.0752,-0.1302,-0.5639,0.1443,0.0916,-0.3508,0
19412931,0.8196,-0.0825,-0.1288,-0.5522,0.1303,0.0517,-0.1785,0
19413097,0.8263,-0.0886,-0.1272,-0.5414,-0.1161,0.1714,-0.0277,0
19413264,0.8351,-0.0972,-0.1256,-0.5267,-0.0208,-0.0393,0.8157,0
19413431,0.8465,-0.1112,-0.1232,-0.5059,0.2014,0.1026,-0.1968,0
19413597,0.8542,-0.1191,-0.1220,-0.4912,-0.2189,0.0778,-0.9981,0
19413764,0.8593,-0.1226,-0.1209,-0.4816,-0.0286,-0.0072,-0.3481,0
19413931,0.8624,-0.1235,-0.1199,-0.4760,-0.1314,-0.0263,-0.0718,0
19414097,0.8656,-0.1232,-0.1201,-0.4702,0.0265,-0.0668,-0.1882,0
19414264,0.8690,-0.1225,-0.1190,-0.4645,0.2101,-0.0625,-0.0253,0
19414431,0.8716,-0.1223,-0.1185,-0.4597,-0.1431,0.0496,0.0263,0
19414597,0.8737,-0.1237,-0.1186,-0.4552,-0.0770,0.0728,0.0031,0
19414764,0.8754,-0.1256,-0.1184,-0.4516,-0.0767,-0.0453,-0.1549,0
19414931,0.8763,-0.1264,-0.1182,-0.4495,0.0825,-0.1285,-0.1214,0
19415097,0.8775,-0.1260,-0.1178,-0.4474,-0.0162,-0.2470,-0.1320,0
19415264,0.8788,-0.1250,-0.1164,-0.4455,-0.0901,-0.3124,-0.0656,0
19415431,0.8801,-0.1241,-0.1157,-0.4434,-0.4511,-0.1233,-0.0613,0
19415597,0.8804,-0.1235,-0.1167,-0.4428,-0.1920,-0.0548,-0.2830,0
19415764,0.8800,-0.1230,-0.1185,-0.4433,-0.0912,-0.1044,-0.1332,0
19415931,0.8796,-0.1221,-0.1205,-0.4437,-0.0165,-0.1343,0.0652,0
19416097,0.8793,-0.1215,-0.1216,-0.4441,0.2281,-0.0859,0.0014,0
19416264,0.8793,-0.1211,-0.1219,-0.4442,0.0304,-0.1659,-0.0179,0
19416431,0.8792,-0.1213,-0.1227,-0.4442,-0.1002,-0.0255,0.0318,0
19416597,0.8787,-0.1229,-0.1245,-0.4442,-0.0454,-0.0209,0.0284,0
19416764,0.8782,-0.1238,-0.1258,-0.4445,0.0394,-0.1316,-0.2419,0
19416931,0.8778,-0.1245,-0.1276,-0.4446,0.2248,-0.0729,-0.0903,0
19417097,0.8769,-0.1258,-0.1306,-0.4452,-0.0416,0.0199,-0.1611,0
19417264,0.8753,-0.1275,-0.1354,-0.4465,-0.2722,-0.0179,-0.0935,0
19417431,0.8736,-0.1288,-0.1386,-0.4483,0.0041,-0.2405,0.0326,0
19417597,0.8712,-0.1327,-0.1413,-0.4511,0.1031,0.1067,0.1453,0
19417764,0.8687,-0.1415,-0.1444,-0.4523,0.2765,0.5415,0.5667,0
19417931,0.8629,-0.1622,-0.1501,-0.4546,-0.3189,0.6683,0.8036,0
19418097,0.8569,-0.1814,-0.1523,-0.4578,0.1893,-0.7555,-1.1787,0
19418264,0.8547,-0.1909,-0.1509,-0.4586,-0.1970,-1.0567,-0.1398,0
19418431,0.8537,-0.1968,-0.1487,-0.4587,-0.1064,-0.1766,-0.1405,0
19418597,0.8535,-0.2007,-0.1485,-0.4575,-0.5397,-0.2482,-0.5262,0
19418764,0.8536,-0.2015,-0.1520,-0.4556,0.7200,0.0004,-0.5989,0
19418931,0.8518,-0.2079,-0.1515,-0.4563,-0.0481,1.3314,1.0122,0
19419097,0.8480,-0.2225,-0.1470,-0.4579,0.8802,0.1412,0.3809,0
19419264,0.8428,-0.2458,-0.1376,-0.4587,0.3711,0.4661,0.4564,0
19419431,0.8352,-0.2756,-0.1231,-0.4597,0.5587,0.2521,1.0491,0
19419597,0.8261,-0.3092,-0.0951,-0.4614,0.1423,-0.0367,0.4145,0
19419764,0.8144,-0.3418,-0.0717,-0.4635,0.0154,-0.1225,-0.1143,0
19419931,0.8032,-0.3755,-0.0569,-0.4589,-0.4822,0.8600,0.3502,0
19420097,0.7943,-0.4054,-0.0460,-0.4501,-0.4969,-1.5901,-0.4032,0
19420264,0.7888,-0.4289,-0.0358,-0.4388,-0.3161,-0.8455,-0.7378,0
19420431,0.7818,-0.4539,-0.0215,-0.4269,0.0615,0.5152,0.3876,0
19420597,0.7642,-0.4954,0.0086,-0.4129,0.8658,1.9277,2.4236,0
19420764,0.6977,-0.6023,0.0817,-0.3791,6.2886,11.7456,2.8585,0
19420931,0.5130,-0.7681,0.2036,-0.3246,0.0977,-1.1424,-5.5052,0
19421097,0.4452,-0.8075,0.2269,-0.3136,-12.4161,-17.2387,-3.1493,0
19421264,0.4387,-0.8097,0.2238,-0.3190,2.0457,-0.1961,-4.4084,0
19421431,0.4333,-0.8158,0.2226,-0.3119,1.2353,-1.0649,-0.8093,0
19421597,0.4280,-0.8232,0.2212,-0.3004,1.4754,-1.9581,2.0721,0
19421764,0.4237,-0.8282,0.2210,-0.2930,0.3083,-0.6796,3.1274,0
19421931,0.4162,-0.8317,0.2239,-0.2914,-0.5498,0.5899,0.6156,0
19422098,0.4056,-0.8372,0.2286,-0.2870,1.2408,0.8803,-0.9628,0
19422264,0.3922,-0.8445,0.2319,-0.2813,1.9578,-0.1895,0.4498,0
19422431,0.3785,-0.8503,0.2338,-0.2813,-0.6749,-0.1843,0.2276,0
19422598,0.3658,-0.8562,0.2350,-0.2792,-1.9927,0.1669,-2.6646,0
19422764,0.3546,-0.8640,0.2396,-0.2654,0.5061,-0.7082,-3.9654,0
19422931,0.3403,-0.8732,0.2460,-0.2474,1.5342,-0.1265,0.3858,0
19423098,0.3230,-0.8820,0.2539,-0.2309,-2.2404,0.0045,1.3646,0
19423264,0.3029,-0.8912,0.2578,-0.2181,-2.7944,-0.2212,0.4101,0
19423431,0.2818,-0.9000,0.2589,-0.2088,-1.8579,-1.2405,-1.3586,0
19423598,0.2530,-0.9094,0.2609,-0.2025,-0.0128,-0.4361,-0.0112,0
19423764,0.2165,-0.9193,0.2649,-0.1947,-1.5746,-1.3363,-2.5194,0
19423931,0.1716,-0.9313,0.2696,-0.1749,-0.9684,-0.6025,-0.0137,0
19424098,0.1279,-0.9439,0.2668,-0.1468,-0.0042,-0.4202,-0.8908,0
19424264,0.0824,-0.9540,0.2618,-0.1207,0.7862,-0.5771,1.2762,0
19424431,0.0414,-0.9591,0.2603,-0.1027,-0.3795,-0.4859,1.7378,0
19424598,0.0138,-0.9617,0.2569,-0.0941,-1.1339,-0.1146,2.5760,0
19424764,-0.0032,-0.9628,0.2541,-0.0919,-1.2265,-1.2191,0.9034,0
19424931,-0.0180,-0.9631,0.2524,-0.0918,-0.5971,-1.0616,0.6134,0
19425098,0.0267,0.9629,-0.2519,0.0928,-0.4156,-1.0728,0.8496,0
19425264,0.0296,0.9628,-0.2517,0.0932,-0.1363,-0.6538,0.6126,0
19425431,0.0316,0.9628,-0.2517,0.0931,-0.2616,-0.3414,0.1648,0
19425598,0.0340,0.9627,-0.2518,0.0926,0.0734,-0.3735,-0.0024,0
19425764,0.0354,0.9626,-0.2522,0.0925,-0.2515,-0.4850,0.2890,0
19425931,0.0377,0.9624,-0.2526,0.0921,-0.2581,-0.9248,0.0275,0
19426098,0.0401,0.9620,-0.2540,0.0921,-0.2253,-0.6893,0.2411,0
19426264,0.0431,0.9614,-0.2554,0.0933,-0.2438,-0.6959,0.4195,0
19426431,0.0472,0.9607,-0.2567,0.0949,-0.7531,-0.4584,0.2997,0
19426598,0.0517,0.9599,-0.2580,0.0962,-0.4465,-0.7062,-0.0823,0
19426764,0.0565,0.9594,-0.2587,0.0972,-0.4668,-0.6891,0.2634,0
19426931,0.0612,0.9594,-0.2572,0.0983,-0.3272,-0.2826,0.1433,0
19427098,0.0676,0.9596,-0.2546,0.0983,-0.3880,-0.7364,-0.1469,0
19427264,0.0752,0.9597,-0.2524,0.0984,0.1203,-1.3179,0.0835,0
19427431,0.0861,0.9576,-0.2557,0.1007,-1.1345,-0.1288,-0.0115,0
19427598,0.0937,0.9568,-0.2555,0.1025,0.0682,-0.3534,0.0995,0
19427764,0.1034,0.9548,-0.2578,0.1059,-0.2079,-0.6197,0.1713,0
19427931,0.1101,0.9541,-0.2567,0.1076,-0.3008,-0.5824,0.1075,0
19428098,0.1169,0.9531,-0.2569,0.1088,-0.4006,-0.8451,0.1745,0
19428264,0.1212,0.9524,-0.2576,0.1089,-0.4200,-0.9107,0.2470,0
19428431,0.1247,0.9520,-0.2576,0.1088,-0.4011,-0.8291,0.0288,0
19428598,0.1273,0.9516,-0.2575,0.1091,-0.2472,-0.7144,0.1316,0
19428764,0.1285,0.9514,-0.2573,0.1101,-0.4005,-0.4047,0.0024,0
19428931,0.1332,0.9505,-0.2572,0.1123,-0.3322,-0.4711,0.0877,0
19429098,0.1337,0.9483,-0.2629,0.1170,0.0124,-2.2293,1.7317,0
19429264,0.1348,0.9471,-0.2652,0.1207,-1.0268,1.0462,-1.6807,0
19429431,0.1350,0.9471,-0.2647,0.1216,0.2020,-0.7205,0.2392,0
19429598,0.1379,0.9456,-0.2672,0.1242,-0.6991,-0.5059,0.0282,0
19429764,0.1429,0.9446,-0.2673,0.1260,-0.3600,-0.4743,0.3266,0
19429931,0.1483,0.9431,-0.2683,0.1290,-0.1690,-0.3533,-0.0047,0
19430098,0.1504,0.9426,-0.2681,0.1303,-0.0821,-0.6000,0.1105,0
19430264,0.1521,0.9423,-0.2678,0.1309,-0.6930,-0.4394,-0.1244,0
19430431,0.1544,0.9421,-0.2674,0.1311,-0.0027,-0.4302,-0.0765,0
19430598,0.1579,0.9413,-0.2673,0.1322,-0.0300,-0.9104,0.2095,0
19430764,0.1627,0.9403,-0.2674,0.1336,-0.6806,-0.1292,0.0159,0
19430931,0.1663,0.9394,-0.2676,0.1349,-0.3460,-0.7284,0.5540,0
19431098,0.1694,0.9377,-0.2703,0.1378,-0.6791,-0.3206,-0.0824,0
19431264,0.1705,0.9374,-0.2706,0.1375,0.0855,-0.3960,-0.1653,0
19431431,0.1726,0.9369,-0.2710,0.1379,-0.1784,-0.4527,-0.0645,0
19431598,0.1751,0.9360,-0.2720,0.1389,-0.6013,-0.5699,0.1431,0
19431764,0.1765,0.9351,-0.2737,0.1394,-0.2694,-0.6473,0.2363,0
19431931,0.1772,0.9347,-0.2746,0.1396,-0.5137,-0.5458,0.0545,0
19432098,0.1762,0.9348,-0.2749,0.1397,-0.3386,-0.5229,0.1922,0
19432264,0.1733,0.9351,-0.2754,0.1403,-0.3035,-0.4814,0.2299,0
19432431,0.1697,0.9353,-0.2763,0.1419,-0.2580,-0.3508,0.1158,0
19432598,0.1662,0.9356,-0.2769,0.1429,-0.3766,-0.5014,0.1685,0
19432764,0.1625,0.9357,-0.2781,0.1440,-0.4849,-0.6816,0.1612,0
19432931,0.1530,0.9357,-0.2815,0.1478,0.0361,-0.6253,0.5863,0
19433098,0.1417,0.9352,-0.2866,0.1525,-0.1276,-0.3949,-0.0925,0
19433264,0.1335,0.9349,-0.2898,0.1552,-0.5788,-0.3204,-0.4804,0
19433431,0.1261,0.9350,-0.2918,0.1574,-0.3276,-0.4794,0.1596,0
19433598,0.1169,0.9356,-0.2921,0.1603,-0.5776,-0.5211,0.3358,0
19433764,0.1059,0.9364,-0.2916,0.1638,-0.8195,-0.6574,0.6231,0
19433931,0.0932,0.9371,-0.2910,0.1689,-0.4396,-0.5947,0.3199,0
19434098,0.0795,0.9372,-0.2914,0.1742,0.0902,-0.5129,0.1649,0
19434264,0.0577,0.9367,-0.2931,0.1826,-0.6081,-0.7747,0.9700,0
19434431,-0.0342,-0.9356,0.2950,-0.1909,-0.4318,-0.6556,0.5907,0
19434598,-0.0012,-0.9334,0.2974,-0.2007,-0.8913,-0.7031,1.1964,0
19434764,0.0313,-0.9308,0.2976,-0.2100,-0.6495,-0.5905,0.0052,0
19434931,0.0587,-0.9277,0.2971,-0.2185,-0.5756,-0.6251,-0.3582,0
19435098,0.0960,-0.9230,0.2958,-0.2268,-0.9353,-0.9131,1.5040,0
19435264,0.1331,-0.9176,0.2929,-0.2336,-0.2859,-0.6615,-0.9161,0
19435431,0.1634,-0.9122,0.2902,-0.2385,0.0511,-0.6337,-0.1070,0
19435598,0.2011,-0.9045,0.2844,-0.2459,-1.8256,-0.4981,2.0770,0
19435764,0.2481,-0.8932,0.2739,-0.2563,-0.6180,-0.7457,-0.1898,0
19435931,0.2840,-0.8826,0.2668,-0.2631,0.7912,-1.0460,-1.5757,0
19436098,0.3155,-0.8712,0.2609,-0.2710,-0.9370,-0.7269,0.2922,0
19436264,0.3467,-0.8577,0.2561,-0.2804,0.0038,-1.2100,-0.3074,0
19436431,0.3721,-0.8431,0.2562,-0.2916,-0.2549,-0.8605,-0.6649,0
19436598,0.3953,-0.8274,0.2589,-0.3034,-0.5176,-0.6502,-0.0589,0
19436764,0.4189,-0.8092,0.2638,-0.3164,-0.1787,-0.7087,-0.3140,0
19436931,0.4438,-0.7872,0.2713,-0.3313,-0.4393,-0.7173,0.0538,0
19437098,0.4698,-0.7623,0.2775,-0.3482,-1.0564,-0.5442,0.0584,0
19437264,0.5008,-0.7343,0.2777,-0.3645,-1.5367,-0.7291,-0.2108,0
19437431,0.5313,-0.7028,0.2762,-0.3841,-1.3172,-0.6929,-0.6220,0
19437598,0.5607,-0.6706,0.2716,-0.4027,-0.8186,-0.5414,-0.9464,0
19437764,0.5883,-0.6400,0.2644,-0.4177,-0.0588,-0.0373,-0.7512,0
19437931,0.6159,-0.6071,0.2549,-0.4326,-0.6179,-0.4225,-0.8473,0
19438098,0.6410,-0.5734,0.2465,-0.4468,0.4899,-0.6888,-0.9673,0
19438264,0.6613,-0.5377,0.2429,-0.4633,-0.3468,-0.0857,-0.1685,0
19438431,0.6788,-0.5027,0.2383,-0.4793,0.5025,-0.1867,-0.6078,0
19438598,0.6943,-0.4737,0.2354,-0.4881,1.2845,-0.2232,-0.8833,0
19438765,0.7085,-0.4496,0.2327,-0.4916,0.0443,-0.3088,0.5663,0
19438931,0.7211,-0.4258,0.2333,-0.4942,0.5571,-0.2096,-0.2212,0
19439098,0.7321,-0.4030,0.2345,-0.4965,-0.3128,0.2375,-0.1547,0
19439265,0.7420,-0.3789,0.2355,-0.5004,-0.7598,-0.1152,0.0430,0
19439431,0.7503,-0.3541,0.2356,-0.5061,-0.6628,0.0300,-0.0618,0
19439598,0.7586,-0.3217,0.2290,-0.5183,-2.3765,0.7922,-0.6332,0
19439765,0.7674,-0.2750,0.2121,-0.5389,-2.0258,0.9947,-1.0231,0
19439931,0.7658,-0.2269,0.1947,-0.5693,0.6703,0.3392,0.2648,0
19440098,0.7585,-0.2042,0.1870,-0.5899,2.5622,-0.8837,2.7205,0
19440265,0.7483,-0.1983,0.1869,-0.6048,1.6214,-0.0764,1.4556,0
19440431,0.7349,-0.1972,0.1898,-0.6205,-0.2341,0.0496,-0.0755,0
19440598,0.7186,-0.1966,0.1940,-0.6382,-0.8514,-0.0688,0.1143,0
19440765,0.7013,-0.1958,0.1993,-0.6558,-0.9909,-0.0041,0.4157,0
19440931,0.6812,-0.1936,0.2085,-0.6746,-0.1007,-0.6085,0.2525,0
19441098,0.6555,-0.1848,0.2206,-0.6982,-0.0534,0.0536,-0.3635,0
19441265,0.6300,-0.1785,0.2333,-0.7189,0.7971,-0.9865,-0.3219,0
19441431,0.6017,-0.1687,0.2440,-0.7416,-1.2107,-0.1111,-0.3490,0
19441598,0.5774,-0.1597,0.2520,-0.7600,-0.7371,-0.9506,-0.0931,0
19441765,0.5560,-0.1491,0.2588,-0.7756,-0.3361,-0.3499,-0.2311,0
19441931,0.5304,-0.1363,0.2630,-0.7943,-1.1782,1.4882,-0.7691,0
19442098,0.4970,-0.1185,0.2586,-0.8198,-0.2339,0.6031,-0.3251,0
19442265,0.4664,-0.1050,0.2521,-0.8414,0.8118,-0.8899,0.3231,0
19442431,0.4384,-0.0969,0.2488,-0.8582,0.6541,-0.2310,1.0662,0
19442598,0.4022,-0.0822,0.2488,-0.8773,-0.6739,-0.6690,-1.8517,0
19442765,0.3719,-0.0385,0.2467,-0.8941,-1.0900,-1.3961,-1.8701,0
19442931,0.3304,0.0175,0.2302,-0.9152,1.5307,1.4966,-1.6469,0
19443098,0.2919,0.0732,0.2086,-0.9305,-0.9828,-3.3371,0.3617,0
19443265,0.2684,0.1062,0.1891,-0.9386,-0.5986,-1.3912,1.8487,0
19443431,0.2496,0.1232,0.1739,-0.9446,0.0525,-0.7420,1.7389,0
19443598,0.2297,0.1305,0.1613,-0.9509,0.8487,-0.0749,0.1705,0
19443765,0.2101,0.1337,0.1496,-0.9569,-0.0469,-0.6396,-0.1988,0
19443931,0.1874,0.1474,0.1397,-0.9611,-0.1028,-0.8436,-0.3851,0
19444098,0.1633,0.1573,0.1312,-0.9651,1.4190,-0.8682,0.2709,0
19444265,0.1439,0.1548,0.1243,-0.9695,0.0337,-0.0147,-0.5839,0
19444431,0.1299,0.1491,0.1150,-0.9735,-0.1448,0.2036,-0.1690,0
19444598,0.1164,0.1460,0.1039,-0.9769,0.4725,-0.2360,0.0452,0
19444765,0.1034,0.1440,0.0979,-0.9793,-0.0966,-1.0551,0.6059,0
19444931,0.0929,0.1434,0.0972,-0.9805,1.1958,-0.2490,0.0278,0
19445098,0.0868,0.1455,0.0897,-0.9815,-1.5603,0.3986,-1.1853,0
19445265,0.0916,0.1521,0.0835,-0.9806,-3.6818,-0.0862,0.4539,0
19445431,0.0930,0.1536,0.0818,-0.9803,-2.1498,-0.4572,-1.1719,0
19445598,0.0908,0.1589,0.0787,-0.9800,-0.6922,-0.3705,-0.2583,0
19445765,0.0771,0.1697,0.0715,-0.9799,1.6864,-0.5353,-0.2685,0
19445931,0.0551,0.1810,0.0669,-0.9797,0.5728,-0.7267,0.0338,0
19446098,0.0186,0.1936,0.0591,-0.9791,0.6752,-0.4340,1.3070,0
19446265,0.0246,-0.2233,-0.0787,0.9712,-0.5849,-1.3629,3.4303,0
19446431,0.0732,-0.2547,-0.1002,0.9590,0.0694,-0.7438,0.0114,0
19446598,0.1142,-0.2721,-0.1222,0.9476,-0.9246,-0.2746,-1.2674,0
19446765,0.1490,-0.2825,-0.1408,0.9371,-0.5124,-0.7466,-0.5440,0
19446931,0.1822,-0.2903,-0.1576,0.9261,-0.7022,-0.3838,-0.7655,0
19447098,0.2027,-0.2875,-0.1767,0.9193,-2.1723,-0.1633,-1.7021,0
19447265,0.2101,-0.2828,-0.1924,0.9159,0.1096,0.5378,-0.1329,0
19447431,0.2146,-0.2781,-0.2023,0.9142,0.4366,0.3603,0.2061,0
19447598,0.2173,-0.2709,-0.2109,0.9137,0.3900,-0.1754,-1.1456,0
19447765,0.2196,-0.2573,-0.2134,0.9165,1.0322,0.0615,-1.4984,0
19447931,0.2214,-0.2433,-0.2102,0.9206,-0.3975,0.2400,0.6013,0
19448098,0.2235,-0.2337,-0.2033,0.9242,-0.4336,0.2731,0.0138,0
19448265,0.2267,-0.2230,-0.1934,0.9282,0.4173,-0.1227,-0.8124,0
19448431,0.2310,-0.2064,-0.1777,0.9341,1.0957,-0.0799,-0.6845,0
19448598,0.2354,-0.1866,-0.1587,0.9405,0.0085,-0.2680,0.6326,0
19448765,0.2389,-0.1752,-0.1435,0.9443,-2.2035,-0.6494,0.7821,0
19448931,0.2391,-0.1725,-0.1336,0.9462,-1.7204,-0.8240,0.1700,0
19449098,0.2396,-0.1719,-0.1240,0.9475,-0.1441,-0.0660,0.3456,0
19449265,0.2410,-0.1711,-0.1170,0.9481,-0.0674,-0.4390,0.2853,0
19449431,0.2426,-0.1691,-0.1123,0.9487,-0.3390,-0.5846,0.3535,0
19449598,0.2444,-0.1663,-0.1099,0.9490,-0.3441,-0.2974,-0.0598,0
19449765,0.2462,-0.1624,-0.1088,0.9493,-0.2753,-0.0174,-0.3289,0
19449931,0.2465,-0.1577,-0.1074,0.9502,-0.1357,-0.0386,-0.4515,0
19450098,0.2465,-0.1538,-0.1045,0.9511,-0.2441,-0.1457,0.0149,0
19450265,0.2469,-0.1502,-0.1018,0.9519,-0.1882,-0.2524,0.1311,0
19450431,0.2471,-0.1461,-0.0999,0.9527,-0.3308,-0.2288,-0.0882,0
19450598,0.2485,-0.1497,-0.0937,0.9524,-0.4008,0.6366,-0.9639,0
19450765,0.2521,-0.1492,-0.0880,0.9521,0.6584,-0.3730,0.4362,0
19450931,0.2557,-0.1458,-0.0838,0.9520,-0.3736,-0.5441,0.1722,0
19451098,0.2587,-0.1421,-0.0806,0.9520,0.0818,-0.5691,-0.8099,0
19451265,0.2615,-0.1415,-0.0778,0.9516,-0.7952,-0.5358,-0.0116,0
19451431,0.2651,-0.1414,-0.0757,0.9508,-0.1385,-0.5552,0.1791,0
19451598,0.2678,-0.1403,-0.0731,0.9504,0.0387,-0.3051,-0.0247,0
19451765,0.2707,-0.1384,-0.0703,0.9501,-0.0027,-0.4129,-0.1150,0
19451931,0.2727,-0.1358,-0.0674,0.9501,-0.0804,-0.1846,-0.1760,0
19452098,0.2748,-0.1333,-0.0644,0.9500,0.0497,-0.2815,0.0960,0
19452265,0.2769,-0.1309,-0.0610,0.9500,-0.3777,-0.3740,-0.0059,0
19452431,0.2784,-0.1291,-0.0580,0.9500,-0.3577,-0.5017,-0.0440,0
19452598,0.2792,-0.1273,-0.0556,0.9501,-0.3400,-0.4977,0.1136,0
19452765,0.2794,-0.1254,-0.0537,0.9504,-0.3549,-0.4426,0.1365,0
19452931,0.2807,-0.1294,-0.0527,0.9496,0.1154,-0.1336,-0.7490,0
19453098,0.2820,-0.1304,-0.0506,0.9492,-0.3449,-0.1807,0.3020,0
19453265,0.2855,-0.1329,-0.0519,0.9477,0.0405,0.1500,0.0174,0
19453431,0.2899,-0.1342,-0.0508,0.9462,-0.0480,-0.1064,0.1533,0
19453598,0.2960,-0.1347,-0.0496,0.9443,0.0927,0.0118,-0.2234,0
19453765,0.3038,-0.1347,-0.0485,0.9419,0.0831,-0.1386,-0.0391,0
19453931,0.3108,-0.1350,-0.0470,0.9397,-0.2945,-0.6053,0.0084,0
19454098,0.3191,-0.1355,-0.0454,0.9369,-0.0692,-0.2869,0.0800,0
19454265,0.3300,-0.1343,-0.0427,0.9334,0.3222,0.3321,-0.0710,0
19454431,0.3454,-0.1340,-0.0394,0.9280,-0.1380,-0.2066,-0.3521,0
19454598,0.3769,-0.1388,-0.0501,0.9144,1.9570,-2.0065,3.0387,0
19454765,0.3974,-0.1426,-0.0523,0.9050,-2.9619,1.0756,-3.3824,0
19454931,0.4071,-0.1418,-0.0459,0.9012,-0.1885,-0.4104,-0.0086,0
19455098,0.4135,-0.1408,-0.0409,0.8986,-0.3170,-0.5127,0.1023,0
19455265,0.4189,-0.1403,-0.0367,0.8964,-0.2512,-0.1176,-0.1257,0
19455432,0.4273,-0.1405,-0.0338,0.8925,-0.3120,-0.0818,-0.3240,0
19455598,0.4358,-0.1399,-0.0300,0.8886,-0.1447,-0.1633,-0.1428,0
19455765,0.4450,-0.1377,-0.0263,0.8845,-0.0801,-0.2906,0.0764,0
19455932,0.4530,-0.1355,-0.0222,0.8809,-0.2095,-0.3086,0.1182,0
19456098,0.4584,-0.1346,-0.0187,0.8783,-0.3609,-0.4710,-0.1571,0
19456265,0.4619,-0.1351,-0.0151,0.8765,-0.0736,-0.2450,-0.3358,0
19456432,0.4643,-0.1357,-0.0076,0.8752,-0.0476,-0.4220,-0.3323,0
19456598,0.4645,-0.1369,0.0007,0.8749,-0.0083,-0.3319,-0.4651,0
19456765,0.4662,-0.1383,0.0072,0.8738,-0.4274,-0.2674,0.1808,0
19456932,0.4716,-0.1405,0.0148,0.8704,0.1139,0.0226,-0.0927,0
19457098,0.4790,-0.1417,0.0212,0.8660,-0.9352,-0.3915,-0.1397,0
19457265,0.4844,-0.1441,0.0232,0.8626,-0.3886,-0.6029,-0.0287,0
19457432,0.4898,-0.1464,0.0241,0.8591,-0.1598,-0.3800,-0.3331,0
19457598,0.4946,-0.1486,0.0252,0.8560,0.2245,-0.2878,-0.3003,0
19457765,0.5005,-0.1490,0.0280,0.8524,-0.0098,-0.2767,-0.3461,0
19457932,0.5051,-0.1484,0.0320,0.8496,-0.1130,-0.3511,-0.1145,0
19458098,0.5085,-0.1480,0.0348,0.8475,0.0331,-0.5264,0.0789,0
19458265,0.5102,-0.1487,0.0355,0.8464,0.0133,-0.4221,-0.2154,0
19458432,0.5113,-0.1485,0.0376,0.8457,0.3230,-0.3403,-0.2107,0
19458598,0.5125,-0.1476,0.0408,0.8449,0.1218,-0.3314,-0.0500,0
19458765,0.5135,-0.1463,0.0442,0.8444,-0.0581,-0.2478,-0.1915,0
19458932,0.5140,-0.1440,0.0484,0.8442,-0.1837,-0.2059,-0.1140,0
19459098,0.5129,-0.1403,0.0475,0.8456,-0.1908,-0.1151,-0.0799,0
19459265,0.5103,-0.1367,0.0477,0.8477,-0.3518,0.0883,0.0670,0
19459432,0.5060,-0.1338,0.0491,0.8507,-0.3209,0.1326,-0.1959,0
19459598,0.4991,-0.1308,0.0523,0.8550,-0.3967,0.0859,-0.3287,0
19459765,0.4883,-0.1272,0.0597,0.8613,-0.4652,-0.0119,-0.4744,0
19459932,0.4753,-0.1240,0.0686,0.8683,-0.2879,-0.0675,-0.1342,0
19460098,0.4620,-0.1224,0.0744,0.8753,-0.3678,-0.0405,0.0178,0
19460265,0.4462,-0.1209,0.0806,0.8830,-0.7311,-0.0655,-0.4896,0
19460432,0.4254,-0.1180,0.0892,0.8928,-1.3301,-0.2916,-0.6447,0
19460598,0.3994,-0.1141,0.1007,0.9040,-1.5267,-0.3274,-0.3242,0
19460765,0.3704,-0.1090,0.1123,0.9156,-0.7197,-0.3850,-0.2022,0
19460932,0.3377,-0.1018,0.1187,0.9282,-0.0483,-0.5067,-0.1498,0
19461098,0.3049,-0.0941,0.1240,0.9396,1.1684,-0.3226,0.5639,0
19461265,0.2775,-0.0891,0.1266,0.9482,0.6273,-0.2804,0.4375,0
19461432,0.2554,-0.0858,0.1214,0.9553,0.6823,-0.2829,0.4726,0
19461598,0.2402,-0.0849,0.1154,0.9601,0.2157,-0.2260,-0.0335,0
19461765,0.2288,-0.0843,0.1121,0.9633,-0.4191,-0.4161,-0.1777,0
19461932,0.2183,-0.0830,0.1094,0.9662,0.0100,-0.4281,0.0340,0
19462098,0.2093,-0.0810,0.1081,0.9685,0.1417,-0.3459,-0.0117,0
19462265,0.2008,-0.0783,0.1070,0.9706,0.0064,-0.2201,-0.0293,0
19462432,0.1936,-0.0761,0.1059,0.9724,-0.2378,-0.1601,-0.0363,0
19462598,0.1873,-0.0743,0.1055,0.9738,0.0021,-0.0975,0.0600,0
19462765,0.1823,-0.0733,0.1043,0.9750,-0.0630,-0.2917,0.1110,0
19462932,0.1785,-0.0725,0.1035,0.9758,-0.4417,-0.3998,0.0127,0
19463098,0.1722,-0.0714,0.1015,0.9772,-0.4034,-0.4308,-0.2121,0
19463265,0.1705,-0.0708,0.1004,0.9777,0.3375,0.0813,0.0081,0
19463432,0.1656,-0.0708,0.0922,0.9793,-0.8400,-0.6435,0.7751,0
19463598,0.1620,-0.0710,0.0879,0.9803,0.1914,-0.0075,-0.6615,0
19463765,0.1542,-0.0700,0.0837,0.9820,-0.6851,-0.5303,0.0046,0
19463932,0.1459,-0.0700,0.0819,0.9834,-0.4214,-0.4599,-0.1255,0
19464098,0.1376,-0.0717,0.0745,0.9851,0.2183,0.6639,-0.3085,0
19464265,0.1351,-0.0759,0.0678,0.9856,-0.5495,-1.8231,0.7582,0
19464432,0.1288,-0.0782,0.0569,0.9870,0.5312,1.3817,-0.9658,0
19464598,0.1282,-0.0796,0.0559,0.9870,0.5575,-0.7508,-0.1805,0
19464765,0.1282,-0.0807,0.0542,0.9870,-0.1167,-0.3133,-0.0170,0
19464932,0.1275,-0.0825,0.0479,0.9872,-0.4543,-0.5963,0.3473,0
19465098,0.1281,-0.0850,0.0458,0.9871,-0.0637,0.0697,-0.6239,0
19465265,0.1283,-0.0862,0.0451,0.9869,-0.1614,-0.1063,-0.0725,0
19465432,0.1282,-0.0868,0.0447,0.9869,-0.0505,-0.1285,-0.0981,0
19465598,0.1273,-0.0882,0.0390,0.9872,-0.0942,-0.1727,0.1388,0
19465765,0.1275,-0.0898,0.0394,0.9870,-0.2623,-0.0998,-0.4216,0
19465932,0.1275,-0.0908,0.0401,0.9869,-0.1415,-0.0997,-0.1274,0
19466098,0.1270,-0.0904,0.0365,0.9871,0.0563,-0.1647,0.3132,0
19466265,0.1275,-0.0907,0.0387,0.9869,-0.2071,-0.0157,-0.5053,0
19466432,0.1286,-0.0912,0.0411,0.9866,0.0680,-0.0306,-0.2583,0
19466598,0.1312,-0.0914,0.0449,0.9861,0.2336,-0.0104,-0.2081,0
19466765,0.1369,-0.0909,0.0489,0.9852,0.5019,0.0383,-0.1553,0
19466932,0.1472,-0.0913,0.0562,0.9833,-0.3590,-0.2629,0.4973,0
19467098,0.1580,-0.0938,0.0602,0.9811,-0.5320,-0.2306,-0.3672,0
19467265,0.1700,-0.0958,0.0633,0.9787,0.0476,-0.2273,-0.2209,0
19467432,0.1819,-0.0958,0.0658,0.9764,0.0165,-0.3640,-0.1802,0
19467598,0.1921,-0.0944,0.0682,0.9744,0.0041,-0.2444,0.0023,0
19467765,0.2027,-0.0930,0.0706,0.9722,-0.0172,-0.1163,-0.0038,0
19467932,0.2147,-0.0922,0.0731,0.9696,-0.0934,-0.0604,-0.0553,0
19468098,0.2264,-0.0920,0.0760,0.9667,-0.4344,-0.2633,-0.2935,0
19468265,0.2361,-0.0918,0.0802,0.9640,-0.2734,-0.2417,-0.0805,0
19468432,0.2459,-0.0922,0.0840,0.9612,-0.0961,-0.1563,-0.0068,0
19468598,0.2562,-0.0922,0.0868,0.9583,0.1505,-0.1161,-0.1291,0
19468765,0.2668,-0.0915,0.0894,0.9552,-0.1966,-0.2138,-0.0979,0
19468932,0.2772,-0.0911,0.0929,0.9520,-0.2780,-0.2585,0.0515,0
19469098,0.2881,-0.0911,0.0959,0.9484,-0.1199,-0.1448,0.0006,0
19469265,0.3010,-0.0915,0.0985,0.9441,0.4077,0.1514,-0.1066,0
19469432,0.3160,-0.0913,0.1030,0.9387,-0.5673,-0.2431,-0.2870,0
19469598,0.3296,-0.0908,0.1108,0.9332,-0.3857,-0.3793,-0.0423,0
19469765,0.3425,-0.0900,0.1191,0.9276,-0.1463,-0.2493,0.0320,0
19469932,0.3554,-0.0892,0.1269,0.9218,0.0089,-0.1408,0.0251,0
19470098,0.3691,-0.0879,0.1347,0.9154,0.3226,-0.1369,-0.1129,0
19470265,0.3845,-0.0857,0.1445,0.9077,-0.0258,0.1050,-0.2125,0
19470432,0.4007,-0.0829,0.1541,0.8993,-0.3317,-0.2429,-0.0996,0
19470598,0.4145,-0.0804,0.1625,0.8918,-0.6852,-0.5726,0.1841,0
19470765,0.4228,-0.0813,0.1651,0.8873,-0.7652,-0.6792,0.4706,0
19470932,0.4292,-0.0853,0.1645,0.8840,-0.5449,-0.2174,0.1159,0
19471098,0.4364,-0.0854,0.1680,0.8798,-0.1768,-0.0336,0.3009,0
19471265,0.4437,-0.0852,0.1714,0.8755,-0.4325,-0.1746,0.6263,0
19471432,0.4474,-0.0873,0.1726,0.8732,0.0226,-0.0976,-0.1773,0
19471598,0.4504,-0.0922,0.1702,0.8716,0.9081,0.1780,-0.1216,0
19471765,0.4506,-0.0949,0.1743,0.8704,0.8322,0.4562,0.7556,0
19471932,0.4481,-0.0999,0.1807,0.8698,0.4251,0.7289,1.1952,0
19472099,0.4436,-0.1065,0.1884,0.8697,1.7340,1.1670,1.2572,0
19472265,0.4389,-0.1131,0.1997,0.8687,2.9641,1.5135,2.1336,0
19472432,0.4336,-0.1208,0.2148,0.8667,2.7441,2.0342,1.2984,0
19472599,0.4269,-0.1300,0.2333,0.8639,4.0140,2.6133,1.3945,0
19472765,0.4219,-0.1442,0.2531,0.8585,6.0756,3.3177,4.6541,0
19472932,0.4153,-0.1684,0.2709,0.8519,4.2836,3.3067,4.9242,0
19473099,0.4078,-0.1991,0.2843,0.8445,0.7091,2.2409,1.3941,0
19473265,0.4005,-0.2299,0.2933,0.8371,-1.5867,0.3444,-1.4337,0
19473432,0.3927,-0.2558,0.3007,0.8306,-2.8843,-1.1801,-2.3607,0
19473599,0.3853,-0.2777,0.3065,0.8249,-2.4238,-1.5184,-1.1776,0
19473765,0.3779,-0.2997,0.3088,0.8197,-2.1537,-1.6994,-1.2467,0
19473932,0.3699,-0.3212,0.3092,0.8151,-3.1228,-2.6126,-1.7386,0
19474099,0.3610,-0.3403,0.3097,0.8111,-3.7595,-3.3393,-2.1906,0
19474265,0.3539,-0.3560,0.3062,0.8089,-3.4283,-3.5750,-2.5825,0
19474432,0.3474,-0.3684,0.3005,0.8082,-3.1652,-4.2273,-3.3504,0
19474599,0.3427,-0.3742,0.2971,0.8089,-2.2991,-3.3018,-2.2873,0
19474765,0.3395,-0.3747,0.2985,0.8095,-1.9558,-1.4703,-0.0465,0
19474932,0.3374,-0.3749,0.3004,0.8095,-2.2052,-0.7460,0.2149,0
19475099,0.3355,-0.3789,0.2974,0.8096,-1.6114,-0.7672,-0.4345,0
19475265,0.3335,-0.3841,0.2930,0.8095,-0.2547,-0.5254,-0.7689,0
19475432,0.3307,-0.3917,0.2873,0.8091,0.1662,0.3188,0.0840,0
19475599,0.3268,-0.4034,0.2801,0.8075,0.3776,0.6813,0.2515,0
19475765,0.3225,-0.4155,0.2741,0.8051,0.4759,0.6360,-0.1494,0
19475932,0.3208,-0.4243,0.2731,0.8015,0.2648,0.2159,-0.9808,0
19476099,0.3212,-0.4304,0.2753,0.7974,0.5253,0.0294,-1.2062,0
19476265,0.3213,-0.4359,0.2772,0.7936,0.3614,0.1847,-1.0474,0
19476432,0.3215,-0.4412,0.2790,0.7900,0.3588,0.2417,-0.9851,0
19476599,0.3240,-0.4456,0.2820,0.7855,-0.3597,-0.3509,-1.2230,0
19476765,0.3271,-0.4499,0.2852,0.7806,-1.2331,-0.7291,-1.1208,0
19476932,0.3296,-0.4556,0.2871,0.7755,-1.1674,-0.7324,-0.7640,0
19477099,0.3308,-0.4634,0.2858,0.7708,-0.9090,-0.8689,-0.9044,0
19477265,0.3314,-0.4707,0.2804,0.7681,-0.0122,-0.6983,-1.0012,0
19477432,0.3316,-0.4793,0.2721,0.7657,0.3820,-0.0617,-0.7079,0
19477599,0.3305,-0.4901,0.2611,0.7631,0.2299,0.5222,-0.1135,0
19477765,0.3279,-0.5024,0.2476,0.7608,-0.3683,0.0970,-0.6400,0
19477932,0.3270,-0.5065,0.2418,0.7603,-0.9358,-0.5290,-1.3949,0
19478099,0.3287,-0.5072,0.2397,0.7597,-0.9566,0.1017,-0.6378,0
19478265,0.3315,-0.5080,0.2375,0.7587,-0.7843,0.1673,-0.7900,0
19478432,0.3354,-0.5084,0.2358,0.7573,-0.5163,0.2667,-1.0371,0
19478599,0.3397,-0.5089,0.2340,0.7556,-0.7084,0.4502,-1.2951,0
19478765,0.3447,-0.5092,0.2323,0.7536,-0.5763,0.1391,-1.6696,0
19478932,0.3510,-0.5081,0.2318,0.7516,-0.8642,-0.2972,-2.0029,0
19479099,0.3594,-0.5042,0.2328,0.7500,-0.8906,-0.2809,-2.2746,0
19479265,0.3708,-0.4972,0.2346,0.7485,-0.2894,0.1707,-2.0421,0
19479432,0.3840,-0.4871,0.2382,0.7473,-0.4266,0.6952,-0.8574,0
19479599,0.3957,-0.4782,0.2409,0.7461,-1.0274,1.1200,0.3916,0
19479765,0.4056,-0.4736,0.2399,0.7441,0.0405,0.9706,0.9414,0
19479932,0.4149,-0.4714,0.2369,0.7413,0.3537,0.5490,0.8934,0
19480099,0.4239,-0.4698,0.2334,0.7383,0.3504,0.3980,1.0590,0
19480265,0.4320,-0.4699,0.2292,0.7348,0.7206,0.5878,2.1257,0
19480432,0.4384,-0.4717,0.2261,0.7309,0.7403,0.3777,2.5599,0
19480599,0.4438,-0.4739,0.2245,0.7267,0.9509,-0.0157,2.4002,0
19480765,0.4489,-0.4761,0.2233,0.7225,0.9943,-0.5345,1.6594,0
19480932,0.4544,-0.4771,0.2228,0.7185,0.8166,-0.9446,1.1280,0
19481099,0.4605,-0.4764,0.2234,0.7148,0.8885,-0.9381,1.4062,0
19481265,0.4671,-0.4754,0.2240,0.7111,1.0189,-0.8264,1.4447,0
19481432,0.4726,-0.4744,0.2243,0.7080,0.5986,-0.7322,0.9242,0
19481599,0.4766,-0.4731,0.2248,0.7060,0.4653,-0.7185,0.2637,0
19481765,0.4791,-0.4705,0.2273,0.7053,0.1374,-0.4266,-0.2795,0
19481932,0.4806,-0.4692,0.2293,0.7045,0.3386,0.0192,-0.3925,0
19482099,0.4817,-0.4693,0.2305,0.7033,0.0582,-0.0617,-1.0567,0
19482265,0.4828,-0.4705,0.2313,0.7015,-0.7539,-0.0095,-1.5675,0
19482432,0.4843,-0.4728,0.2313,0.6989,-1.1954,-0.2314,-2.2451,0
19482599,0.4863,-0.4752,0.2303,0.6962,-1.4453,-0.3406,-2.7326,0
19482765,0.4894,-0.4763,0.2308,0.6930,-1.0723,-0.1599,-2.1526,0
19482932,0.4935,-0.4778,0.2312,0.6890,-0.6549,0.1569,-0.8044,0
19483099,0.4971,-0.4812,0.2307,0.6842,-0.4697,0.2059,-0.3027,0
19483265,0.5009,-0.4853,0.2301,0.6787,0.2976,0.0837,-0.0835,0
19483432,0.5049,-0.4899,0.2290,0.6728,1.0243,0.2057,0.5122,0
19483599,0.5084,-0.4945,0.2271,0.6674,1.2534,-0.0025,0.3919,0
19483765,0.5118,-0.4982,0.2256,0.6626,1.0571,-0.0626,0.3116,0
19483932,0.5152,-0.5015,0.2238,0.6580,0.4691,-0.0011,0.1364,0
19484099,0.5184,-0.5018,0.2249,0.6549,-1.2427,-0.0427,-1.1030,0
19484265,0.5221,-0.5009,0.2275,0.6517,-0.7031,0.3537,-0.5697,0
19484432,0.5260,-0.5011,0.2286,0.6480,-0.4925,0.4066,-1.1230,0
19484599,0.5309,-0.5010,0.2289,0.6441,-0.8796,0.8072,-1.3738,0
19484765,0.5349,-0.5048,0.2254,0.6390,-1.2440,1.3223,-1.2528,0
19484932,0.5386,-0.5115,0.2194,0.6326,-1.5525,1.0521,-2.6076,0
19485099,0.5427,-0.5179,0.2131,0.6260,-1.7204,0.9504,-3.4320,0
19485265,0.5468,-0.5250,0.2079,0.6181,-2.0357,1.0200,-3.5602,0
19485432,0.5505,-0.5347,0.2011,0.6088,-2.1030,1.0634,-3.6089,0
19485599,0.5545,-0.5464,0.1929,0.5973,-1.9458,1.2114,-3.2435,0
19485765,0.5588,-0.5604,0.1834,0.5831,-1.6838,1.1413,-2.7728,0
19485932,0.5633,-0.5759,0.1739,0.5665,-1.0842,1.0401,-2.3556,0
19486099,0.5683,-0.5918,0.1644,0.5476,-0.3766,0.7936,-1.9813,0
19486265,0.5739,-0.6063,0.1572,0.5275,0.4372,0.6627,-1.0857,0
19486432,0.5789,-0.6209,0.1519,0.5063,0.8049,0.6296,0.2495,0
19486599,0.5817,-0.6360,0.1490,0.4847,1.5564,0.0819,1.3930,0
19486765,0.5835,-0.6504,0.1471,0.4636,2.1784,-0.5063,3.0466,0
19486932,0.5852,-0.6636,0.1452,0.4428,1.7891,-0.7815,4.8455,0
19487099,0.5854,-0.6778,0.1429,0.4213,0.8058,-0.1563,7.2018,0
19487265,0.5830,-0.6937,0.1401,0.3990,0.8819,-0.9219,8.4216,0
19487432,0.5792,-0.7093,0.1376,0.3774,1.1370,-1.9568,8.8362,0
19487599,0.5759,-0.7208,0.1392,0.3598,1.7404,-2.9783,8.4298,0
19487765,0.5719,-0.7286,0.1435,0.3485,2.5132,-3.6116,7.0199,0
19487932,0.5679,-0.7326,0.1488,0.3445,3.2521,-4.6044,3.6551,0
19488099,0.5647,-0.7333,0.1537,0.3460,2.4709,-3.8475,0.7061,0
19488265,0.5620,-0.7322,0.1586,0.3505,1.4637,-2.6501,-1.2949,0
19488432,0.5595,-0.7312,0.1620,0.3552,0.6475,-1.7800,-2.5577,0
19488599,0.5576,-0.7301,0.1645,0.3591,0.3003,-1.4293,-3.2039,0
19488766,0.5572,-0.7283,0.1676,0.3620,0.3956,-1.3493,-3.2877,0
19488932,0.5619,-0.7223,0.1714,0.3650,0.5172,-1.0494,-2.9673,0
19489099,0.5643,-0.7186,0.1740,0.3673,0.3142,-0.4427,-2.3678,0
19489266,0.5665,-0.7152,0.1756,0.3696,0.1887,-0.1997,-1.8030,0
19489432,0.5720,-0.7092,0.1756,0.3728,-0.5047,0.5431,-1.1947,0
19489599,0.5731,-0.7082,0.1765,0.3727,-1.0936,1.3078,0.3868,0
19489766,0.5737,-0.7084,0.1772,0.3709,-0.9393,0.8405,0.6269,0
19489932,0.5787,-0.7042,0.1785,0.3706,-0.5784,0.7847,1.0800,0
19490099,0.5815,-0.7009,0.1818,0.3708,-0.1125,0.7383,2.0129,0
19490266,0.5788,-0.7030,0.1829,0.3706,-0.4512,1.2046,2.3477,0
19490432,0.5717,-0.7100,0.1810,0.3693,-0.0546,0.3811,1.3700,0
19490599,0.5649,-0.7162,0.1800,0.3681,-0.2016,-0.1335,-0.1001,0
19490766,0.5591,-0.7215,0.1802,0.3666,-0.5897,-0.3107,-1.0311,0
19490932,0.5569,-0.7232,0.1820,0.3657,-0.3724,-0.5797,-1.2911,0
19491099,0.5566,-0.7235,0.1833,0.3648,0.0224,-0.4057,-0.4969,0
19491266,0.5574,-0.7228,0.1854,0.3639,0.5244,-0.4522,0.3394,0
19491432,0.5583,-0.7219,0.1871,0.3635,0.4524,-0.3036,0.3726,0
19491599,0.5577,-0.7222,0.1880,0.3634,0.4430,-0.5987,0.3165,0
19491766,0.5565,-0.7224,0.1893,0.3642,0.4092,-0.7979,0.0334,0
19491932,0.5567,-0.7213,0.1906,0.3655,0.0344,-0.6777,-0.3539,0
19492099,0.5568,-0.7201,0.1922,0.3668,-0.0988,-0.4523,-0.3722,0
19492266,0.5572,-0.7190,0.1931,0.3678,-0.0515,-0.1484,0.0201,0
19492432,0.5572,-0.7183,0.1938,0.3688,0.1326,-0.4392,-0.1661,0
19492599,0.5559,-0.7179,0.1949,0.3709,0.2715,-0.4278,0.0907,0
19492766,0.5519,-0.7197,0.1941,0.3738,0.1868,-0.1521,0.3143,0
19492932,0.5459,-0.7232,0.1926,0.3767,0.0004,0.0251,0.1620,0
19493099,0.5359,-0.7287,0.1908,0.3813,-0.1127,0.0848,0.0847,0
19493266,0.5212,-0.7374,0.1871,0.3867,-0.0448,0.1721,0.0522,0
19493432,0.5081,-0.7450,0.1835,0.3913,-0.0595,-0.0910,-0.6903,0
19493599,0.4969,-0.7512,0.1804,0.3953,-0.4449,0.1861,-0.7067,0
19493766,0.4874,-0.7563,0.1768,0.3991,-0.3058,0.2882,-0.4681,0
19493932,0.4795,-0.7606,0.1745,0.4015,-0.4774,0.4918,-0.1293,0
19494099,0.4720,-0.7663,0.1722,0.4005,-0.5903,0.5378,0.2101,0
19494266,0.4632,-0.7736,0.1673,0.3988,0.1811,-0.1972,0.4326,0
19494432,0.4580,-0.7785,0.1635,0.3969,0.3940,-0.8978,0.1125,0
19494599,0.4545,-0.7812,0.1608,0.3966,0.2522,-0.4578,0.1829,0
19494766,0.4510,-0.7839,0.1576,0.3966,0.4057,-0.3382,0.1635,0
19494932,0.4474,-0.7867,0.1542,0.3965,0.2863,-0.3921,-0.2466,0
19495099,0.4432,-0.7898,0.1497,0.3967,0.2698,-0.5564,-0.5185,0
19495266,0.4400,-0.7920,0.1449,0.3976,0.5979,-1.0005,-0.7922,0
19495432,0.4388,-0.7921,0.1421,0.3998,0.3593,-0.9330,-1.2214,0
19495599,0.4361,-0.7936,0.1382,0.4012,0.0010,-0.2711,-1.0600,0
19495766,0.4326,-0.7959,0.1330,0.4021,0.0744,-0.4393,-0.9612,0
19495932,0.4306,-0.7975,0.1280,0.4028,0.1685,-0.2188,-0.2432,0
19496099,0.4303,-0.7980,0.1232,0.4035,0.0905,0.0010,0.5797,0
19496266,0.4297,-0.7985,0.1193,0.4045,-0.1217,0.0396,0.8636,0
19496432,0.4279,-0.7995,0.1151,0.4055,-0.0449,0.0927,1.3889,0
19496599,0.4270,-0.7997,0.1115,0.4070,-0.0258,-0.0952,1.3225,0
19496766,0.4277,-0.7984,0.1097,0.4094,-0.2363,0.1704,1.1462,0
19496932,0.4284,-0.7972,0.1081,0.4114,-0.3380,0.2729,0.5451,0
19497099,0.4283,-0.7968,0.1060,0.4129,-0.1909,0.0484,-0.2955,0
19497266,0.4282,-0.7965,0.1037,0.4142,-0.0866,-0.0431,-0.6849,0
19497432,0.4290,-0.7955,0.1022,0.4155,0.0940,-0.0100,-0.4725,0
19497599,0.4292,-0.7951,0.1008,0.4164,-0.0776,0.2847,-0.2055,0
19497766,0.4279,-0.7955,0.0996,0.4172,0.1739,0.0688,-0.1343,0
19497932,0.4259,-0.7960,0.0988,0.4186,0.3274,0.1398,0.4661,0
19498099,0.4243,-0.7957,0.0988,0.4207,0.5327,-0.0508,0.7184,0
19498266,0.4239,-0.7947,0.0993,0.4229,0.2997,0.0888,0.6790,0
19498432,0.4234,-0.7943,0.0994,0.4242,-0.1273,0.4196,0.6994,0
19498599,0.4226,-0.7940,0.0999,0.4254,-0.0982,0.0804,0.1814,0
19498766,0.4224,-0.7933,0.1019,0.4265,-0.1294,0.0590,-0.0231,0
19498932,0.4226,-0.7924,0.1047,0.4273,0.0002,-0.1771,-0.2353,0
19499099,0.4226,-0.7919,0.1072,0.4275,-0.3070,-0.0105,-0.4044,0
19499266,0.4213,-0.7929,0.1079,0.4267,-0.1581,-0.1989,-0.4233,0
19499432,0.4214,-0.7930,0.1089,0.4262,0.1393,-0.4758,-0.4820,0
19499599,0.4241,-0.7912,0.1108,0.4265,0.1178,-0.3204,-0.2749,0
19499766,0.4290,-0.7879,0.1136,0.4270,0.2518,-0.2392,-0.0112,0
19499932,0.4356,-0.7836,0.1163,0.4274,0.1513,-0.1955,0.0773,0
19500099,0.4416,-0.7795,0.1184,0.4282,0.1690,-0.1800,0.0492,0
19500266,0.4480,-0.7750,0.1199,0.4293,0.1414,-0.0379,0.2816,0
19500432,0.4546,-0.7704,0.1212,0.4302,-0.1308,0.1023,0.2042,0
19500599,0.4598,-0.7668,0.1218,0.4310,-0.2577,0.1092,0.0715,0
19500766,0.4644,-0.7635,0.1224,0.4317,-0.2259,0.1114,0.0552,0
19500932,0.4676,-0.7613,0.1227,0.4321,-0.2794,0.1985,-0.0113,0
19501099,0.4696,-0.7595,0.1234,0.4329,0.1934,-0.2263,-0.1605,0
19501266,0.4722,-0.7569,0.1257,0.4341,0.1234,-0.0122,0.0714,0
19501432,0.4729,-0.7559,0.1265,0.4346,-0.1003,0.1095,-0.3282,0
19501599,0.4729,-0.7558,0.1266,0.4349,0.0704,-0.0850,-0.2268,0
19501766,0.4725,-0.7563,0.1256,0.4347,0.2094,-0.1174,-0.0573,0
19501932,0.4725,-0.7561,0.1250,0.4353,0.3151,-0.2863,-0.0204,0
19502099,0.4729,-0.7555,0.1247,0.4359,0.0719,0.0797,0.3940,0
19502266,0.4731,-0.7556,0.1231,0.4360,0.1781,-0.1217,0.2229,0
19502432,0.4736,-0.7550,0.1218,0.4367,-0.0966,-0.2864,-0.2926,0
19502599,0.4731,-0.7540,0.1230,0.4388,-0.5746,0.3674,0.3161,0
19502766,0.4721,-0.7541,0.1230,0.4397,0.1544,-0.0131,0.5463,0
19502932,0.4716,-0.7543,0.1227,0.4400,0.1200,-0.1225,0.2755,0
19503099,0.4721,-0.7536,0.1235,0.4403,0.1809,-0.1798,0.1428,0
19503266,0.4731,-0.7525,0.1252,0.4407,0.1644,-0.0963,0.2915,0
19503432,0.4742,-0.7515,0.1266,0.4409,0.3026,-0.1987,0.2542,0
19503599,0.4755,-0.7502,0.1278,0.4413,0.0844,-0.1967,-0.2345,0
19503766,0.4770,-0.7490,0.1289,0.4415,0.1007,-0.1830,-0.0724,0
19503932,0.4776,-0.7482,0.1295,0.4419,0.0448,-0.2413,-0.2417,0
19504099,0.4784,-0.7470,0.1309,0.4427,0.2745,-0.3975,-0.1005,0
19504266,0.4794,-0.7454,0.1325,0.4437,0.1920,-0.1421,0.2529,0
19504432,0.4798,-0.7444,0.1337,0.4448,-0.1013,0.0948,0.2673,0
19504599,0.4797,-0.7435,0.1347,0.4460,-0.0807,0.1082,0.1490,0
19504766,0.4795,-0.7431,0.1351,0.4468,-0.0925,0.1964,0.1489,0
19504932,0.4794,-0.7424,0.1360,0.4478,-0.0956,0.0645,-0.2599,0
19505099,0.4794,-0.7416,0.1369,0.4489,-0.2108,0.1484,-0.3707,0
19505266,0.4794,-0.7413,0.1371,0.4493,-0.1753,0.1132,-0.0971,0
19505433,0.4796,-0.7410,0.1368,0.4497,-0.1802,-0.1213,-0.5283,0
19505599,0.4807,-0.7399,0.1371,0.4501,0.0011,-0.2163,-0.1780,0
19505766,0.4820,-0.7392,0.1368,0.4501,0.0741,-0.1030,0.3453,0
19505933,0.4829,-0.7388,0.1359,0.4500,0.1539,-0.2418,0.1460,0
19506099,0.4835,-0.7379,0.1363,0.4508,0.1679,-0.3053,-0.0467,0
19506266,0.4836,-0.7375,0.1360,0.4514,0.2273,-0.1402,0.2481,0
19506433,0.4837,-0.7373,0.1351,0.4518,0.1814,-0.2096,-0.1678,0
19506599,0.4838,-0.7371,0.1345,0.4522,-0.0699,0.0464,-0.0460,0
19506766,0.4834,-0.7378,0.1330,0.4520,0.0221,0.0143,0.0177,0
19506933,0.4834,-0.7380,0.1320,0.4519,0.1146,-0.2168,-0.2369,0
19507099,0.4834,-0.7379,0.1318,0.4522,-0.1075,0.1092,0.1003,0
19507266,0.4830,-0.7383,0.1312,0.4521,-0.1779,0.1358,0.1223,0
19507433,0.4829,-0.7384,0.1311,0.4521,-0.0308,-0.0063,0.0668,0
19507599,0.4831,-0.7382,0.1312,0.4521,-0.0195,0.0422,0.1277,0
19507766,0.4828,-0.7384,0.1311,0.4522,-0.0371,-0.0263,-0.0316,0
19507933,0.4827,-0.7383,0.1313,0.4525,0.0979,-0.1045,-0.0391,0
19508099,0.4828,-0.7380,0.1314,0.4527,0.0883,-0.1079,0.0639,0
19508266,0.4828,-0.7378,0.1316,0.4530,0.0875,-0.2621,-0.3751,0
19508433,0.4828,-0.7372,0.1324,0.4538,0.1213,-0.1682,-0.2202,0
19508599,0.4825,-0.7367,0.1333,0.4547,0.1646,-0.1112,0.4049,0
19508766,0.4819,-0.7361,0.1342,0.4559,0.4271,-0.2073,0.2150,0
19508933,0.4817,-0.7352,0.1348,0.4574,0.2095,-0.1202,-0.0378,0
19509099,0.4819,-0.7337,0.1362,0.4592,0.0640,-0.1456,-0.1607,0
19509266,0.4818,-0.7319,0.1381,0.4616,0.1279,-0.1691,-0.0086,0
19509433,0.4818,-0.7303,0.1395,0.4638,0.0096,-0.0145,0.0398,0
19509599,0.4829,-0.7276,0.1414,0.4662,0.1264,-0.1711,-0.2866,0
19509766,0.4852,-0.7238,0.1442,0.4689,0.1294,-0.0486,0.3088,0
19509933,0.4872,-0.7206,0.1462,0.4711,0.0842,0.1251,0.6130,0
19510099,0.4894,-0.7176,0.1477,0.4730,0.1211,-0.0554,0.2531,0
19510266,0.4922,-0.7143,0.1499,0.4745,0.0703,0.0710,0.5897,0
19510433,0.4944,-0.7116,0.1514,0.4756,0.1245,0.1283,0.6001,0
19510599,0.4976,-0.7080,0.1537,0.4769,0.4539,-0.0580,0.9170,0
19510766,0.5028,-0.7030,0.1560,0.4781,1.0491,0.1028,1.8791,0
19510933,0.5132,-0.6979,0.1510,0.4761,1.5915,0.4114,3.0846,0
19511099,0.5271,-0.6917,0.1422,0.4728,0.6983,-0.1096,1.5081,0
19511266,0.5399,-0.6850,0.1349,0.4702,0.2332,0.1897,1.4800,0
19511433,0.5512,-0.6794,0.1261,0.4676,0.9661,0.1766,2.4177,0
19511599,0.5617,-0.6745,0.1158,0.4649,0.3339,0.0906,1.2148,0
19511766,0.5656,-0.6723,0.1085,0.4651,0.2927,-0.1775,2.0304,0
19511933,0.5619,-0.6751,0.1017,0.4671,1.3660,-0.7530,2.2404,0
19512099,0.5582,-0.6732,0.1006,0.4744,2.4056,-2.2034,1.5309,0
19512266,0.5548,-0.6666,0.1044,0.4868,0.3860,-1.3171,1.0257,0
19512433,0.5510,-0.6583,0.1102,0.5009,-0.0385,-1.0611,0.2670,0
19512599,0.5483,-0.6489,0.1183,0.5141,-0.6439,-0.2065,0.7542,0
19512766,0.5446,-0.6420,0.1260,0.5248,-0.1326,0.0393,1.2606,0
19512933,0.5414,-0.6352,0.1341,0.5343,0.4702,-0.2518,0.7993,0
19513099,0.5382,-0.6279,0.1442,0.5434,0.2837,-0.2254,0.3589,0
19513266,0.5309,-0.6231,0.1525,0.5537,0.0648,-0.2133,0.1537,0
19513433,0.5232,-0.6167,0.1642,0.5648,0.5383,-0.0054,0.2284,0
19513599,0.5182,-0.6087,0.1736,0.5752,-0.3770,0.2784,-0.7146,0
19513766,0.5127,-0.6027,0.1798,0.5844,-0.9040,0.3302,-1.1889,0
19513933,0.5071,-0.5992,0.1839,0.5916,-1.0980,0.1105,-1.5130,0
19514099,0.5022,-0.5964,0.1875,0.5975,-1.0669,0.7825,-0.9568,0
19514266,0.4974,-0.5954,0.1895,0.6018,-1.4817,0.2512,-1.2052,0
19514433,0.4945,-0.5948,0.1905,0.6044,-1.3348,0.3212,-1.0837,0
19514599,0.4925,-0.5958,0.1834,0.6074,-0.2695,-0.3710,-2.1582,0
19514766,0.4892,-0.5968,0.1793,0.6102,0.7093,-0.0342,-1.2626,0
19514933,0.4864,-0.5971,0.1741,0.6137,-0.1390,-0.8984,-2.0247,0
19515099,0.4829,-0.5979,0.1702,0.6167,-1.1173,-0.4714,-1.4652,0
19515266,0.4808,-0.6011,0.1669,0.6162,-3.2892,-0.0056,-1.0953,0
19515433,0.4808,-0.6058,0.1616,0.6130,-1.4829,0.9114,0.3062,0
19515599,0.4810,-0.6125,0.1544,0.6080,-0.2130,0.6850,0.5521,0
19515766,0.4791,-0.6207,0.1476,0.6029,0.9949,0.8274,1.2331,0
19515933,0.4747,-0.6296,0.1406,0.5987,1.4611,0.5359,1.1757,0
19516099,0.4683,-0.6388,0.1292,0.5966,2.5047,-0.7152,0.5531,0
19516266,0.4615,-0.6461,0.1223,0.5955,-1.3841,0.3786,-0.1282,0
19516433,0.4551,-0.6522,0.1192,0.5944,1.7063,-4.3718,-3.4013,0
19516599,0.4562,-0.6480,0.1221,0.5975,-0.2630,-0.2230,-0.2217,0
19516766,0.4586,-0.6420,0.1243,0.6017,-0.8985,0.4849,-0.1501,0
19516933,0.4618,-0.6398,0.1249,0.6015,-2.0976,0.9517,-0.8992,0
19517099,0.4690,-0.6338,0.1257,0.6022,-0.8153,1.3368,0.3711,0
19517266,0.4709,-0.6332,0.1293,0.6005,-0.3993,1.3911,0.3130,0
19517433,0.4633,-0.6433,0.1445,0.5921,-1.2890,0.2413,0.2047,0
19517599,0.4516,-0.6787,0.1656,0.5550,4.3225,-1.6323,0.2043,0
19517766,0.4496,-0.6809,0.1751,0.5510,1.5296,-2.9737,-1.7513,0
19517933,0.4537,-0.6869,0.1937,0.5337,-1.4258,-1.6384,0.9749,0
19518099,0.4622,-0.6827,0.1995,0.5296,-1.1123,0.7146,0.7710,0
19518266,0.4674,-0.6821,0.2040,0.5241,-1.2507,1.4267,2.1568,0
19518433,0.4671,-0.6861,0.2029,0.5195,-0.9603,0.7194,1.2405,0
19518599,0.4647,-0.6945,0.1973,0.5127,-0.2590,-0.4049,1.2615,0
19518766,0.4670,-0.6992,0.1919,0.5061,1.3954,-2.0507,0.1327,0
19518933,0.4749,-0.6986,0.1874,0.5013,0.9265,-1.3243,1.1588,0
19519099,0.4708,-0.7034,0.1829,0.5002,-0.8423,0.1934,3.8792,0
19519266,0.4681,-0.7095,0.1775,0.4959,-3.3532,0.7259,3.2973,0
19519433,0.4624,-0.7198,0.1676,0.4899,-4.0112,0.5402,2.7439,0
19519599,0.4589,-0.7304,0.1514,0.4827,-2.4038,-0.8069,3.1111,0
19519766,0.4607,-0.7383,0.1330,0.4744,-1.7416,-1.5469,3.2218,0
19519933,0.4637,-0.7455,0.1141,0.4650,-0.2604,-2.9998,0.3898,0
19520099,0.4673,-0.7532,0.0975,0.4526,1.2388,-4.0689,-1.1101,0
19520266,0.4684,-0.7672,0.0814,0.4304,1.6244,-4.1787,-0.4854,0
19520433,0.4604,-0.7924,0.0613,0.3954,0.4118,-3.9883,-0.5111,0
19520599,0.4385,-0.8278,0.0362,0.3482,-0.6864,-4.3633,-1.0499,0
19520766,0.4070,-0.8652,0.0107,0.2927,0.1048,-5.5882,-1.6228,0
19520933,0.3632,-0.9035,-0.0140,0.2270,-0.2914,-6.2254,-3.6302,0
19521099,0.2945,-0.9463,-0.0374,0.1280,1.7437,-5.6376,-0.9124,0
19521266,0.2254,-0.9727,-0.0546,0.0096,1.8580,-5.2123,2.4884,0
19521433,0.1757,-0.9780,-0.0685,-0.0887,-0.5676,-4.8783,3.0066,0
19521599,0.1532,-0.9713,-0.0825,-0.1622,-1.6245,-4.6990,1.8043,0
19521766,0.1446,-0.9600,-0.0946,-0.2201,-0.2106,-4.9044,-2.3141,0
19521933,0.1289,-0.9500,-0.0963,-0.2676,1.4442,-4.8861,-1.4002,0
19522100,0.1256,-0.9458,-0.0832,-0.2875,6.0772,-8.1320,2.8761,0
19522266,0.1361,-0.9389,-0.0824,-0.3051,-4.0559,-0.6489,0.4073,0
19522433,0.1531,-0.9264,-0.0849,-0.3333,-2.8815,-0.8023,-1.5236,0
19522600,0.1753,-0.9123,-0.0990,-0.3566,-1.9775,1.0928,-3.4130,0
19522766,0.1918,-0.8968,-0.1278,-0.3777,-0.9308,-3.6285,-4.0489,0
19522933,0.1970,-0.8787,-0.1358,-0.4130,-4.7923,-3.0855,-3.3117,0
19523100,0.1744,-0.8586,-0.1263,-0.4652,-5.8329,0.4124,-2.5710,0
19523266,0.1649,-0.8261,-0.1635,-0.5134,-5.3779,-0.7078,-3.0681,0
19523433,-0.1593,0.7826,0.2235,0.5588,1.6713,-3.7314,-2.6110,0
19523600,-0.1506,0.7385,0.2665,0.6008,1.0468,-0.4449,-3.4492,0
19523766,-0.1543,0.6857,0.3076,0.6414,-4.5690,0.1012,-6.7189,0
19523933,-0.1886,0.5972,0.3260,0.7082,-7.2372,9.2945,15.7772,0
19524100,0.2059,-0.4916,-0.3145,-0.7856,-3.0740,0.0539,-5.7251,0
19524266,0.2359,-0.3603,-0.3065,-0.8489,-1.3412,-0.6533,-8.5424,0
19524433,0.2431,-0.2221,-0.2006,-0.9227,15.5840,13.2509,17.6021,0
19524600,0.2369,-0.1261,-0.0329,-0.9628,-0.9501,4.5628,1.9634,0
19524766,0.2445,-0.0797,0.0349,-0.9657,-1.1747,4.9639,-11.6015,0
19524933,0.2403,-0.0698,0.0602,-0.9663,2.5557,7.2226,-3.2190,0
19525100,0.2310,-0.0627,0.0612,-0.9690,-2.0310,5.2801,-3.9515,0
19525266,0.2264,-0.0560,0.0432,-0.9715,-2.0149,3.2203,-1.0059,0
19525433,0.2201,-0.0496,0.0394,-0.9734,-0.1432,2.4131,0.5928,0
19525600,0.2181,-0.0404,0.0431,-0.9741,-3.5768,2.2699,-1.2693,0
19525766,0.2177,-0.0325,0.0380,-0.9747,-1.3494,1.9506,-1.2451,0
19525933,0.2180,-0.0287,0.0341,-0.9749,-0.5017,1.4914,-0.7648,0
19526100,0.2213,-0.0315,0.0362,-0.9740,-1.2881,0.9554,-1.6412,0
19526266,0.2287,-0.0359,0.0337,-0.9723,-1.9623,0.8691,-1.8047,0
19526433,0.2414,-0.0427,0.0247,-0.9692,-1.2701,0.9608,-1.4068,0
19526600,0.2569,-0.0578,0.0112,-0.9646,0.1359,1.0855,-0.2064,0
19526766,0.2730,-0.0811,-0.0030,-0.9586,0.3720,1.1314,0.1123,0
19526933,0.2895,-0.1100,-0.0173,-0.9507,-0.2095,0.8697,-0.4956,0
19527100,0.3046,-0.1444,-0.0356,-0.9408,-0.5751,0.7933,-2.1026,0
19527266,0.3184,-0.1806,-0.0645,-0.9283,-0.4998,0.9916,-3.3482,0
19527433,0.3316,-0.2178,-0.0990,-0.9126,-1.3453,1.1252,-1.0806,0
19527600,0.3493,-0.2445,-0.1208,-0.8965,-1.0848,0.4245,1.5720,0
19527766,0.3650,-0.2620,-0.1298,-0.8839,-1.3748,0.2873,0.6309,0
19527933,0.3791,-0.2752,-0.1357,-0.8730,0.3996,0.9615,0.1737,0
19528100,0.3916,-0.2844,-0.1427,-0.8633,-0.6453,1.2697,-0.9317,0
19528266,0.4031,-0.2857,-0.1592,-0.8547,-2.0882,1.6343,1.0212,0
19528433,0.4119,-0.2836,-0.1791,-0.8472,-0.2465,1.8666,1.8843,0
19528600,0.4211,-0.2858,-0.1957,-0.8383,0.6734,2.1846,2.9596,0
19528766,0.4321,-0.2887,-0.2033,-0.8298,1.1525,0.4078,3.0148,0
19528933,0.4424,-0.2848,-0.1999,-0.8266,0.4504,0.4244,1.6770,0
19529100,0.4519,-0.2682,-0.1941,-0.8284,-0.3927,1.0536,0.4439,0
19529266,0.4616,-0.2430,-0.1841,-0.8331,-0.4573,-0.0125,1.1593,0
19529433,0.4797,-0.2213,-0.1612,-0.8336,-0.7574,-2.3020,1.8219,0
19529600,0.5004,-0.2058,-0.1488,-0.8277,-2.1529,1.0541,-1.5869,0
19529766,0.5100,-0.1860,-0.1445,-0.8273,-2.3250,1.0102,-1.2956,0
19529933,0.5129,-0.1670,-0.1414,-0.8301,-0.2810,0.2255,-1.2757,0
19530100,0.5134,-0.1555,-0.1477,-0.8309,-0.5842,0.2693,-1.9101,0
19530266,0.5132,-0.1398,-0.1601,-0.8316,-0.8477,-0.3798,-0.5306,0
19530433,0.5114,-0.1238,-0.1594,-0.8353,0.2669,-0.2794,-0.3694,0
19530600,0.5123,-0.1095,-0.1491,-0.8386,-1.0491,0.2435,-1.2421,0
19530766,0.5144,-0.1046,-0.1469,-0.8384,-1.3472,0.2126,-0.3612,0
19530933,0.5171,-0.1104,-0.1441,-0.8365,-0.7513,-0.2687,-0.6031,0
19531100,0.5206,-0.1231,-0.1386,-0.8334,-0.9755,-0.4116,-0.6361,0
19531266,0.5234,-0.1347,-0.1370,-0.8302,-0.7503,-0.4501,-0.1167,0
19531433,0.5268,-0.1418,-0.1316,-0.8277,-0.2209,-0.4161,-0.5495,0
19531600,0.5304,-0.1484,-0.1236,-0.8255,0.1012,0.5096,-1.1580,0
19531766,0.5323,-0.1602,-0.1182,-0.8228,0.4000,0.8657,-1.0206,0
19531933,0.5325,-0.1771,-0.1154,-0.8196,0.5884,0.8592,-1.7234,0
19532100,0.5309,-0.1972,-0.1164,-0.8159,0.6217,0.5866,-2.7885,0
19532266,0.5292,-0.2240,-0.1262,-0.8086,1.0134,0.7044,-3.5525,0
19532433,0.5265,-0.2579,-0.1486,-0.7963,0.9350,0.8048,-2.8906,0
19532600,0.5258,-0.2889,-0.1796,-0.7796,0.9161,0.3535,-2.5696,0
19532766,0.5265,-0.3113,-0.2082,-0.7632,1.6295,-0.1954,-1.8938,0
19532933,0.5194,-0.3297,-0.2336,-0.7530,1.7588,-2.7104,4.2114,0
19533100,0.5094,-0.3433,-0.2394,-0.7519,3.9851,-0.8635,3.8134,0
19533266,0.4997,-0.3676,-0.2380,-0.7474,2.9447,3.1613,-0.0917,0
19533433,0.4840,-0.4001,-0.2499,-0.7370,0.9910,1.5791,-2.6326,0
19533600,0.4608,-0.4230,-0.2709,-0.7316,-0.5080,-1.1311,3.0910,0
19533766,0.4439,-0.4311,-0.2887,-0.7306,1.9856,-0.8640,4.3389,0
19533933,0.4373,-0.4336,-0.3009,-0.7281,2.5079,2.4585,4.1063,0
19534100,0.4310,-0.4356,-0.3099,-0.7269,1.8294,2.9743,3.2126,0
19534266,0.4265,-0.4358,-0.3127,-0.7282,1.0523,2.7275,3.0240,0
19534433,0.4253,-0.4313,-0.3114,-0.7322,1.1977,3.0640,2.0876,0
19534600,0.4240,-0.4321,-0.3104,-0.7329,1.9884,2.9343,-1.5905,0
19534766,0.4165,-0.4491,-0.3120,-0.7263,1.5308,1.3924,-2.9003,0
19534933,0.4030,-0.4668,-0.3138,-0.7219,-0.8220,1.0460,-2.3191,0
19535100,0.3935,-0.4767,-0.3172,-0.7192,0.7216,1.8292,2.5422,0
19535266,0.3920,-0.4788,-0.3168,-0.7188,0.2799,2.3778,0.8077,0
19535433,0.3935,-0.4687,-0.3159,-0.7251,0.9461,2.9875,0.6401,0
19535600,0.3925,-0.4516,-0.3129,-0.7376,1.0902,2.9932,0.0200,0
19535766,0.3889,-0.4297,-0.3100,-0.7536,0.9900,2.0034,-1.1139,0
19535933,0.3800,-0.4097,-0.3116,-0.7686,0.5691,1.6973,-1.6394,0
19536100,0.3639,-0.3916,-0.3175,-0.7832,1.0725,1.2597,-0.5936,0
19536266,0.3468,-0.3756,-0.3111,-0.8012,1.8834,-0.1292,2.3455,0
19536433,0.3407,-0.3592,-0.2905,-0.8188,1.2761,-0.6645,3.2894,0
19536600,0.3405,-0.3416,-0.2681,-0.8340,0.7671,2.0832,2.1670,0
19536766,0.3390,-0.3244,-0.2512,-0.8466,1.1630,2.1138,1.4753,0
19536933,0.3354,-0.3067,-0.2393,-0.8580,0.8547,1.1704,1.4237,0
19537100,0.3325,-0.2903,-0.2213,-0.8696,2.3827,0.7242,1.5063,0
19537266,0.3305,-0.2746,-0.1947,-0.8817,1.6076,1.3103,1.4200,0
19537433,0.3272,-0.2590,-0.1688,-0.8930,0.8753,1.3621,0.6273,0
19537600,0.3256,-0.2431,-0.1473,-0.9018,0.4456,1.6388,-0.3362,0
19537766,0.3236,-0.2249,-0.1328,-0.9094,0.9081,0.7537,-0.2263,0
19537933,0.3187,-0.2068,-0.1148,-0.9178,1.6517,0.5671,-0.8498,0
19538100,0.3130,-0.1942,-0.0960,-0.9247,0.9269,1.2664,-2.0539,0
19538266,0.3075,-0.1849,-0.0837,-0.9296,0.2322,1.4012,-2.2129,0
19538433,0.3027,-0.1799,-0.0754,-0.9329,0.0601,1.0733,-1.7556,0
19538600,0.2996,-0.1771,-0.0684,-0.9350,-0.5287,0.5323,-1.5605,0
19538767,0.2961,-0.1736,-0.0596,-0.9373,-0.0352,0.4260,-1.4009,0
19538933,0.2921,-0.1702,-0.0505,-0.9398,0.2068,0.7481,-1.9096,0
19539100,0.2880,-0.1662,-0.0463,-0.9420,-0.1921,0.4764,-1.2972,0
19539267,0.2841,-0.1639,-0.0423,-0.9437,-0.0287,0.5395,-0.9500,0
19539433,0.2811,-0.1636,-0.0369,-0.9449,-0.0947,0.4586,-0.7134,0
19539600,0.2787,-0.1677,-0.0325,-0.9451,0.0710,0.6071,-0.5443,0
19539767,0.2773,-0.1724,-0.0278,-0.9448,0.0930,-0.1543,-0.8229,0
19539933,0.2738,-0.1744,-0.0200,-0.9456,0.4661,-0.5241,-0.7646,0
19540100,0.2700,-0.1764,-0.0136,-0.9464,-0.5016,-0.9654,-0.3600,0
19540267,0.2666,-0.1778,-0.0089,-0.9472,-0.3461,-0.7597,-0.1502,0
19540433,0.2639,-0.1770,-0.0070,-0.9481,-0.3792,-0.1526,-0.1646,0
19540600,0.2621,-0.1762,-0.0079,-0.9488,0.8076,-0.1829,-0.0552,0
19540767,0.2599,-0.1794,-0.0063,-0.9488,0.9065,-0.6177,-0.3214,0
19540933,0.2565,-0.1850,-0.0037,-0.9487,0.1535,-0.6944,-0.4093,0
19541100,0.2523,-0.1906,0.0002,-0.9487,0.0012,-0.6428,-0.3253,0
19541267,0.2500,-0.1933,0.0013,-0.9487,-1.1449,-0.7502,0.3694,0
19541433,0.2489,-0.1903,0.0012,-0.9496,-0.7339,-1.0807,0.9356,0
19541600,0.2484,-0.1848,0.0033,-0.9508,-0.3546,-1.1201,0.6511,0
19541767,0.2481,-0.1776,0.0047,-0.9523,-0.1600,-0.8594,-0.0679,0
19541933,0.2473,-0.1711,0.0042,-0.9537,0.7826,-0.6626,-0.0934,0
19542100,0.2452,-0.1692,0.0043,-0.9546,0.8233,-0.5468,0.3112,0
19542267,0.2434,-0.1684,0.0060,-0.9552,0.0641,-0.2236,1.0325,0
19542433,0.2422,-0.1660,0.0093,-0.9559,0.1228,-0.0146,1.3505,0
19542600,0.2412,-0.1620,0.0148,-0.9568,-0.1122,-0.4560,0.5819,0
19542767,0.2401,-0.1549,0.0202,-0.9581,-0.8724,-0.6542,-0.5854,0
19542933,0.2392,-0.1484,0.0238,-0.9593,-0.5765,-0.5825,-0.9708,0
19543100,0.2389,-0.1480,0.0250,-0.9594,-0.0116,-0.3760,-1.0049,0
19543267,0.2386,-0.1538,0.0248,-0.9585,-0.0105,-0.8292,-0.2661,0
19543433,0.2387,-0.1595,0.0263,-0.9576,0.0131,-0.8842,0.3644,0
19543600,0.2390,-0.1624,0.0275,-0.9570,0.5550,-0.4402,0.1995,0
19543767,0.2385,-0.1627,0.0295,-0.9570,1.3078,-0.4168,-0.6298,0
19543933,0.2376,-0.1619,0.0314,-0.9573,1.1700,-0.1318,-2.0067,0
19544100,0.2364,-0.1623,0.0294,-0.9576,1.0057,0.0571,-2.7986,0
19544267,0.2342,-0.1652,0.0257,-0.9577,1.0178,0.2859,-1.9800,0
19544433,0.2311,-0.1697,0.0226,-0.9578,0.8395,-0.0963,-0.6402,0
19544600,0.2273,-0.1728,0.0273,-0.9580,1.1155,-0.1033,-0.3240,0
19544767,0.2236,-0.1737,0.0303,-0.9586,0.6553,0.2603,-0.6718,0
19544933,0.2193,-0.1728,0.0296,-0.9598,0.5822,-0.1273,-1.1001,0
19545100,0.2143,-0.1713,0.0283,-0.9612,0.5841,-0.0415,-1.2210,0
19545267,0.2092,-0.1719,0.0253,-0.9623,0.6407,0.0745,-1.3480,0
19545433,0.2037,-0.1753,0.0241,-0.9629,0.3431,-0.3522,-0.3838,0
19545600,0.1987,-0.1776,0.0277,-0.9634,0.3210,0.1525,1.3192,0
19545767,0.1944,-0.1789,0.0330,-0.9639,0.4471,0.2193,1.8773,0
19545933,0.1903,-0.1770,0.0361,-0.9650,0.3477,0.0097,1.3781,0
19546100,0.1859,-0.1735,0.0357,-0.9665,0.2414,-0.2152,0.8550,0
19546267,0.1810,-0.1700,0.0345,-0.9681,0.3161,-0.2958,1.1297,0
19546433,0.1760,-0.1679,0.0323,-0.9694,0.0615,-0.3777,1.5713,0
19546600,0.1714,-0.1658,0.0323,-0.9706,-0.1763,-0.7251,2.3114,0
19546767,0.1679,-0.1622,0.0365,-0.9717,-0.1831,-0.6504,2.4357,0
19546933,0.1659,-0.1553,0.0425,-0.9729,-0.3962,-0.3750,1.6994,0
19547100,0.1648,-0.1453,0.0470,-0.9744,-0.1623,-0.5585,0.5938,0
19547267,0.1637,-0.1347,0.0493,-0.9760,0.3383,-0.3704,-0.4167,0
19547433,0.1617,-0.1276,0.0497,-0.9773,0.0619,-0.4246,-0.9277,0
19547600,0.1592,-0.1232,0.0494,-0.9783,-0.2153,-0.6461,-0.8959,0
19547767,0.1572,-0.1210,0.0501,-0.9789,-0.2394,-0.8664,-0.7121,0
19547933,0.1559,-0.1193,0.0521,-0.9792,-0.4977,-1.0433,-0.8057,0
19548100,0.1547,-0.1171,0.0539,-0.9795,-0.3085,-0.8589,-1.3113,0
19548267,0.1530,-0.1156,0.0538,-0.9800,0.0297,-0.5902,-1.5212,0
19548433,0.1510,-0.1168,0.0521,-0.9802,-0.0530,-0.3589,-1.3673,0
19548600,0.1488,-0.1205,0.0498,-0.9802,-0.2937,-0.5224,-0.8803,0
19548767,0.1471,-0.1252,0.0491,-0.9799,-0.2943,-0.1449,0.1942,0
19548933,0.1471,-0.1298,0.0483,-0.9794,-0.7637,-0.2038,0.6130,0
19549100,0.1477,-0.1310,0.0475,-0.9792,-0.8859,-1.2546,0.4068,0
19549267,0.1485,-0.1286,0.0480,-0.9793,-0.6560,-1.1069,-0.5181,0
19549433,0.1488,-0.1255,0.0449,-0.9798,-0.5489,-0.5829,-1.2431,0
19549600,0.1491,-0.1237,0.0372,-0.9804,-0.3356,-0.6168,-0.9132,0
19549767,0.1495,-0.1262,0.0287,-0.9802,0.1590,-0.4938,-0.0675,0
19549933,0.1496,-0.1301,0.0265,-0.9798,0.1547,-0.6517,0.1580,0
19550100,0.1492,-0.1333,0.0250,-0.9795,-0.0089,-0.2589,0.0511,0
19550267,0.1487,-0.1351,0.0216,-0.9794,-0.0473,-0.2339,0.0519,0
19550433,0.1498,-0.1357,0.0163,-0.9792,-0.0049,-0.0814,0.0389,0
19550600,0.1504,-0.1386,0.0120,-0.9788,0.5427,-0.3997,-0.0324,0
19550767,0.1505,-0.1423,0.0121,-0.9782,-0.0924,-0.4778,-0.1412,0
19550933,0.1516,-0.1445,0.0126,-0.9777,-0.4450,-0.0679,-0.1052,0
19551100,0.1547,-0.1461,0.0119,-0.9770,-0.3300,-0.0975,-0.0896,0
19551267,0.1588,-0.1469,0.0096,-0.9763,0.2052,-0.3360,-0.2364,0
19551433,0.1616,-0.1476,0.0078,-0.9757,0.3889,-0.3033,-0.1676,0
19551600,0.1632,-0.1487,0.0059,-0.9753,0.3891,-0.2626,0.3101,0
19551767,0.1639,-0.1499,0.0056,-0.9750,0.2406,-0.1533,0.6747,0
19551933,0.1648,-0.1497,0.0062,-0.9749,0.0566,0.0648,0.7415,0
19552100,0.1658,-0.1479,0.0078,-0.9750,0.1042,-0.2077,0.3531,0
19552267,0.1669,-0.1460,0.0105,-0.9751,0.2626,-0.1375,-0.2718,0
19552433,0.1679,-0.1461,0.0130,-0.9748,0.0255,-0.1102,-0.6579,0
19552600,0.1688,-0.1467,0.0143,-0.9746,-0.1922,-0.0986,-0.5013,0
19552767,0.1697,-0.1470,0.0142,-0.9744,-0.0220,0.1055,-0.1215,0
19552933,0.1704,-0.1472,0.0141,-0.9742,0.3206,-0.0067,0.2500,0
19553100,0.1708,-0.1477,0.0155,-0.9740,0.3099,0.1240,0.4013,0
19553267,0.1713,-0.1469,0.0168,-0.9741,-0.0047,0.1140,0.2809,0
19553433,0.1719,-0.1451,0.0175,-0.9742,0.0145,0.0644,0.1197,0
19553600,0.1726,-0.1432,0.0175,-0.9744,-0.1353,-0.0098,-0.0594,0
19553767,0.1745,-0.1401,0.0172,-0.9745,-0.8855,0.1767,0.1116,0
19553933,0.1778,-0.1343,0.0151,-0.9747,-0.6605,0.2342,0.2551,0
19554100,0.1815,-0.1278,0.0135,-0.9750,0.0490,0.0671,0.0436,0
19554267,0.1847,-0.1229,0.0124,-0.9750,0.1980,0.0203,-0.2797,0
19554433,0.1872,-0.1196,0.0117,-0.9749,0.2785,0.0294,-0.3153,0
19554600,0.1889,-0.1193,0.0122,-0.9746,0.2932,-0.1333,-0.1767,0
19554767,0.1898,-0.1212,0.0144,-0.9742,0.1459,0.0055,-0.0211,0
19554933,0.1902,-0.1232,0.0171,-0.9738,-0.0887,-0.1054,0.1210,0
19555100,0.1902,-0.1242,0.0205,-0.9736,-0.1659,-0.1005,-0.0644,0
19555267,0.1907,-0.1230,0.0237,-0.9736,-0.3552,-0.1571,-0.4361,0
19555434,0.1920,-0.1211,0.0249,-0.9736,-0.3516,-0.0532,-0.7008,0
19555600,0.1939,-0.1192,0.0252,-0.9734,-0.1226,-0.0387,-0.6459,0
19555767,0.1958,-0.1179,0.0241,-0.9732,0.1147,-0.0187,-0.6871,0
19555934,0.1972,-0.1170,0.0216,-0.9731,0.4120,-0.0316,-0.4109,0
19556100,0.1974,-0.1166,0.0195,-0.9732,0.5963,-0.0848,0.0407,0
19556267,0.1970,-0.1162,0.0186,-0.9733,0.1305,0.0464,0.1110,0
19556434,0.1970,-0.1147,0.0177,-0.9735,-0.1722,0.2489,-0.0763,0
19556600,0.1973,-0.1114,0.0157,-0.9739,-0.1092,0.0768,-0.5940,0
19556767,0.1980,-0.1078,0.0142,-0.9741,0.3856,0.1694,-0.6279,0
19556934,0.1982,-0.1069,0.0125,-0.9742,0.3895,0.0971,-0.9169,0
19557100,0.1974,-0.1086,0.0110,-0.9742,0.2175,0.0932,-0.6340,0
19557267,0.1967,-0.1115,0.0114,-0.9740,0.2633,0.2098,-0.0715,0
19557434,0.1961,-0.1152,0.0133,-0.9737,0.3777,0.2290,-0.3180,0
19557600,0.1958,-0.1230,0.0176,-0.9727,0.9043,0.6524,-1.8678,0
19557767,0.1944,-0.1423,0.0187,-0.9704,0.3625,0.6570,-3.7414,0
19557934,0.1937,-0.1679,0.0154,-0.9665,-0.4072,0.4535,-4.6583,0
19558100,0.1947,-0.1943,0.0084,-0.9614,-1.0070,0.0629,-4.0314,0
19558267,0.1995,-0.2236,-0.0012,-0.9540,-1.5285,-0.2797,-3.5998,0
19558434,0.2005,-0.2512,-0.0189,-0.9467,-1.6769,0.0412,-4.1155,0
19558600,0.2002,-0.2794,-0.0433,-0.9381,-1.6852,-0.7978,-3.4608,0
19558767,0.1958,-0.3023,-0.0659,-0.9306,-1.3443,-1.3416,-0.6871,0
19558934,0.1870,-0.3215,-0.0780,-0.9250,0.9162,1.8280,2.8920,0
19559100,0.1826,-0.3381,-0.0940,-0.9184,-1.3915,4.0601,5.5215,0
19559267,0.1841,-0.3434,-0.1064,-0.9148,-0.6280,4.6386,8.4416,0
19559434,0.1869,-0.3404,-0.1080,-0.9152,-0.2233,6.0520,8.9060,0
19559600,0.1897,-0.3295,-0.1020,-0.9192,-0.8088,6.5730,8.6082,0
19559767,0.1957,-0.3187,-0.0995,-0.9221,0.4545,6.8582,10.0710,0
19559934,0.2015,-0.3145,-0.0947,-0.9228,1.1921,7.0543,13.5963,0
19560100,0.2065,-0.3157,-0.0846,-0.9223,3.0218,6.6287,17.8896,0
19560267,0.2118,-0.3135,-0.0661,-0.9233,3.2195,4.5194,21.0027,0
19560434,0.2181,-0.3011,-0.0350,-0.9277,3.0991,0.7700,21.3520,0
19560600,0.2238,-0.2774,0.0071,-0.9343,1.0527,-3.7453,18.2021,0
19560767,0.2294,-0.2447,0.0548,-0.9405,-2.0698,-8.8291,13.2710,0
19560934,0.2398,-0.2143,0.0984,-0.9418,-2.0864,-9.7512,4.8822,0
19561100,0.2618,-0.2129,0.1250,-0.9330,0.2712,-4.9321,-4.8784,0
19561267,0.2866,-0.2292,0.1461,-0.9187,0.2463,-0.2122,-9.8291,0
19561434,0.3115,-0.2460,0.1657,-0.9028,0.0308,0.0309,-10.1190,0
19561600,0.3362,-0.2626,0.1834,-0.8856,0.0025,0.0707,-10.1121,0
19561767,0.3610,-0.2788,0.1993,-0.8673,-0.0199,0.0915,-10.0948,0
19561934,0.3856,-0.2945,0.2133,-0.8480,-0.0323,0.0884,-10.0634,0
19562100,0.4101,-0.3099,0.2258,-0.8275,-0.0204,0.0885,-10.0565,0
19562267,0.4345,-0.3249,0.2367,-0.8060,-0.0005,0.0968,-10.0103,0
19562434,0.4586,-0.3395,0.2462,-0.7835,0.0073,0.1076,-9.9933,0
19562600,0.4825,-0.3537,0.2542,-0.7599,-0.0240,0.1036,-9.9895,0
19562767,0.5061,-0.3674,0.2610,-0.7354,-0.0107,0.0952,-9.9486,0
19562934,0.5294,-0.3804,0.2664,-0.7100,-0.0296,0.1020,-9.9633,0
19563100,0.5523,-0.3928,0.2706,-0.6837,-0.0358,0.0927,-9.9296,0
19563267,0.5750,-0.4042,0.2736,-0.6566,-0.0555,0.0977,-9.9202,0
19563434,0.5973,-0.4147,0.2753,-0.6289,-0.0622,0.0810,-9.9067,0
19563600,0.6192,-0.4241,0.2759,-0.6005,-0.0763,0.0815,-9.8991,0
19563767,0.6407,-0.4323,0.2753,-0.5717,-0.0705,0.0828,-9.8830,0
19563934,0.6619,-0.4391,0.2737,-0.5423,-0.0909,0.0535,-9.8894,0
19564100,0.6827,-0.4445,0.2711,-0.5126,-0.0963,0.0502,-9.8942,0
19564267,0.7033,-0.4482,0.2674,-0.4827,-0.1033,0.0291,-9.8713,0
19564434,0.7237,-0.4497,0.2627,-0.4528,-0.1176,0.0196,-9.8573,0
19564600,0.7440,-0.4491,0.2568,-0.4229,-0.0839,0.0238,-9.8364,0
19564767,0.7642,-0.4461,0.2500,-0.3931,-0.0997,0.0022,-9.8442,0
19564934,0.7842,-0.4408,0.2423,-0.3634,-0.0724,-0.0214,-9.8163,0
19565100,0.8041,-0.4328,0.2338,-0.3340,-0.0664,-0.0206,-9.8257,0
19565267,0.8239,-0.4217,0.2245,-0.3049,-0.0520,-0.0475,-9.8253,0
19565434,0.8437,-0.4073,0.2145,-0.2763,-0.0296,-0.0138,-9.7753,0
19565600,0.8632,-0.3896,0.2040,-0.2481,-0.0368,-0.0422,-9.7855,0
19565767,0.8824,-0.3682,0.1928,-0.2203,0.0145,0.0002,-9.7356,0
19565934,0.9038,-0.3689,0.1274,-0.1757,-17.6012,-22.6164,-19.0619,1024
19566100,0.9319,-0.2650,0.0966,-0.2281,22.0524,88.6469,-13.7010,0
19566267,0.9306,-0.1783,0.0367,-0.3175,12.8358,20.7688,-11.8861,0
19566434,0.8824,-0.1509,-0.0222,-0.4451,0.9129,4.4582,-11.2339,0
19566600,0.8759,-0.0686,-0.0846,-0.4700,-2.4989,17.5323,-14.4647,0
19566767,0.8939,0.0337,-0.1801,-0.4091,4.3696,-2.9999,10.7656,0
19566934,0.8876,0.0627,-0.1592,-0.4277,6.0965,2.6516,-2.1457,0
19567100,0.8551,0.0264,-0.1975,-0.4786,4.1621,10.3473,-2.7258,0
19567267,0.8259,-0.0180,-0.2110,-0.5226,11.0386,8.8549,-6.9552,0
19567434,0.8167,-0.0429,-0.2128,-0.5347,9.9635,3.5820,-4.0651,0
19567600,0.8178,-0.0705,-0.2104,-0.5311,6.1255,2.9554,-1.2206,0
19567767,0.8245,-0.0669,-0.2172,-0.5182,6.8458,2.6575,-2.1967,0
19567934,0.8319,-0.0507,-0.2179,-0.5078,7.1198,2.3951,-1.2586,0
19568100,0.8355,-0.0212,-0.2132,-0.5059,2.9784,0.3719,-4.0059,0
19568267,0.8351,0.0019,-0.2124,-0.5075,1.4915,1.2991,-3.1880,0
19568434,0.8305,0.0120,-0.2210,-0.5112,1.8461,3.8452,-2.9721,0
19568600,0.8214,0.0133,-0.2385,-0.5179,0.9920,5.6610,-5.0993,0
19568767,0.8118,0.0050,-0.2538,-0.5258,1.4896,10.4170,-5.4513,0
19568934,0.8110,-0.0147,-0.2711,-0.5182,1.6833,10.6215,-5.9054,0
